onset	duration	trial_type	response_time	Endowment	Endowment_pmod	Decision	Decision_pmod
4.994117	2	cue_dict_pmod	n/a	17	-2	n/a	n/a
16.543882	2	cue_ug-resp_pmod	n/a	23	4	n/a	n/a
28.593786	2	cue_ug-resp_pmod	n/a	19	-1	n/a	n/a
38.144306	2	cue_dict_pmod	n/a	17	-2	n/a	n/a
51.193695	2	cue_ug-prop_pmod	n/a	21	1	n/a	n/a
66.260650	2	cue_dict_pmod	n/a	17	-2	n/a	n/a
79.810500	2	cue_ug-resp_pmod	n/a	23	4	n/a	n/a
94.860510	2	cue_dict_pmod	n/a	21	2	n/a	n/a
109.910570	2	cue_ug-prop_pmod	n/a	23	3	n/a	n/a
117.960464	2	cue_ug-resp_pmod	n/a	19	-1	n/a	n/a
126.010480	2	cue_ug-prop_pmod	n/a	23	3	n/a	n/a
135.560330	2	cue_ug-prop_pmod	n/a	19	-1	n/a	n/a
143.610280	2	cue_dict_pmod	n/a	19	0	n/a	n/a
155.660400	2	cue_dict_pmod	n/a	15	-4	n/a	n/a
165.210110	2	cue_ug-prop_pmod	n/a	23	3	n/a	n/a
174.760910	2	cue_ug-resp_pmod	n/a	23	4	n/a	n/a
184.810240	2	cue_dict_pmod	n/a	25	6	n/a	n/a
192.859940	2	cue_ug-prop_pmod	n/a	19	-1	n/a	n/a
200.909960	2	cue_ug-resp_pmod	n/a	15	-5	n/a	n/a
218.960160	2	cue_dict_pmod	n/a	23	4	n/a	n/a
229.010010	2	cue_ug-resp_pmod	n/a	15	-5	n/a	n/a
242.059980	2	cue_ug-resp_pmod	n/a	23	4	n/a	n/a
250.109850	2	cue_dict_pmod	n/a	19	0	n/a	n/a
258.159730	2	cue_dict_pmod	n/a	15	-4	n/a	n/a
268.209960	2	cue_ug-prop_pmod	n/a	25	5	n/a	n/a
277.759520	2	cue_ug-prop_pmod	n/a	19	-1	n/a	n/a
287.809600	2	cue_ug-prop_pmod	n/a	21	1	n/a	n/a
299.359470	2	cue_ug-resp_pmod	n/a	15	-5	n/a	n/a
308.909820	2	cue_ug-resp_pmod	n/a	17	-3	n/a	n/a
316.959560	2	cue_ug-prop_pmod	n/a	15	-5	n/a	n/a
327.009430	2	cue_ug-prop_pmod	n/a	15	-5	n/a	n/a
335.059360	2	cue_ug-resp_pmod	n/a	17	-3	n/a	n/a
343.109600	2	cue_dict_pmod	n/a	23	4	n/a	n/a
354.159270	2	cue_ug-prop_pmod	n/a	21	1	n/a	n/a
367.709200	2	cue_dict_pmod	n/a	17	-2	n/a	n/a
377.759500	2	cue_ug-resp_pmod	n/a	25	6	n/a	n/a
9.026931	0.916305	dec_ug-prop_pmod_choice	0.916305	17	n/a	14	-7.141682e-04
19.076342	1.367114	dec_dg-prop_pmod_choice	1.367114	23	n/a	19	-1.772814e-01
32.626404	1.166888	dec_dg-prop_pmod_choice	1.166888	19	n/a	13	-3.540494e-02
43.676500	1.800276	dec_ug-prop_pmod_choice	1.800276	17	n/a	12	1.169329e-01
56.726517	4.000000	missed_trial	n/a	21	n/a	n/a	n/a
70.293045	1.100449	dec_ug-prop_pmod_choice	1.100449	17	n/a	9	2.934035e-01
82.342560	1.050389	dec_dg-prop_pmod_choice	1.050389	23	n/a	22	-3.077162e-01
97.393210	0.984045	dec_ug-prop_pmod_choice	0.984045	21	n/a	14	1.561486e-01
112.443510	0.766262	dec_ug-resp_pmod_accept	0.766262	23	n/a	22	-1.955343e-01
112.443510	0.766262	dec_ug-resp_pmod_option_presented	0.766262	23	n/a	22	-1.955343e-01
112.443510	0.766262	dec_ug-resp_pmod_choice	0.766262	23	n/a	22	-1.955343e-01
120.492730	1.967070	dec_dg-prop_pmod_choice	1.967070	19	n/a	10	1.224898e-01
130.042650	1.283761	dec_ug-resp_pmod_accept	1.283761	23	n/a	13	1.957701e-01
130.042650	1.283761	dec_ug-resp_pmod_option_presented	1.283761	23	n/a	13	1.957701e-01
130.042650	1.283761	dec_ug-resp_pmod_choice	1.283761	23	n/a	13	1.957701e-01
138.092400	1.450694	dec_ug-resp_pmod_reject	1.450694	19	n/a	0	-1.863810e-01
138.092400	1.450694	dec_ug-resp_pmod_option_presented	1.450694	19	n/a	0	-1.863810e-01
138.092400	1.450694	dec_ug-resp_pmod_choice	1.450694	19	n/a	0	-2.390126e-01
146.142760	1.366896	dec_ug-prop_pmod_choice	1.366896	19	n/a	13	1.386047e-01
159.692290	1.733659	dec_ug-prop_pmod_choice	1.733659	15	n/a	8	2.894819e-01
169.242770	1.216897	dec_ug-resp_pmod_reject	1.216897	23	n/a	0	-2.390126e-01
169.242770	1.216897	dec_ug-resp_pmod_option_presented	1.216897	23	n/a	0	-1.955343e-01
169.242770	1.216897	dec_ug-resp_pmod_choice	1.216897	23	n/a	0	-2.390126e-01
177.293210	1.599143	dec_dg-prop_pmod_choice	1.599143	23	n/a	19	-1.772814e-01
187.343370	1.449642	dec_ug-prop_pmod_choice	1.449642	25	n/a	17	1.428152e-01
195.392750	2.966735	dec_ug-resp_pmod_accept	2.966735	19	n/a	15	-2.848624e-02
195.392750	2.966735	dec_ug-resp_pmod_option_presented	2.966735	19	n/a	15	-2.848624e-02
195.392750	2.966735	dec_ug-resp_pmod_choice	2.966735	19	n/a	15	-2.848624e-02
206.443120	2.216479	dec_dg-prop_pmod_choice	2.216479	15	n/a	14	-2.845278e-01
221.492190	1.533626	dec_ug-prop_pmod_choice	1.533626	23	n/a	13	2.575979e-01
234.542390	1.766871	dec_dg-prop_pmod_choice	1.766871	15	n/a	14	-2.845278e-01
244.592450	1.366682	dec_dg-prop_pmod_choice	1.366682	23	n/a	22	-3.077162e-01
252.642410	1.599981	dec_ug-prop_pmod_choice	1.599981	19	n/a	10	2.964995e-01
260.692900	2.033066	dec_ug-prop_pmod_choice	2.033066	15	n/a	12	2.281524e-02
272.242160	1.700440	dec_ug-resp_pmod_reject	1.700440	25	n/a	0	-1.590126e-01
272.242160	1.700440	dec_ug-resp_pmod_option_presented	1.700440	25	n/a	0	-1.590126e-01
272.242160	1.700440	dec_ug-resp_pmod_choice	1.700440	25	n/a	0	-2.390126e-01
280.292360	1.349565	dec_ug-resp_pmod_accept	1.349565	19	n/a	10	2.346717e-01
280.292360	1.349565	dec_ug-resp_pmod_option_presented	1.349565	19	n/a	10	2.346717e-01
280.292360	1.349565	dec_ug-resp_pmod_choice	1.349565	19	n/a	10	2.346717e-01
291.842040	1.817104	dec_ug-resp_pmod_accept	1.817104	21	n/a	14	9.432078e-02
291.842040	1.817104	dec_ug-resp_pmod_option_presented	1.817104	21	n/a	14	9.432078e-02
291.842040	1.817104	dec_ug-resp_pmod_choice	1.817104	21	n/a	14	9.432078e-02
303.392270	1.583811	dec_dg-prop_pmod_choice	1.583811	15	n/a	10	-1.786108e-02
311.442170	1.533423	dec_dg-prop_pmod_choice	1.533423	17	n/a	14	-1.747238e-01
319.491970	1.650539	dec_ug-resp_pmod_accept	1.650539	15	n/a	10	9.432078e-02
319.491970	1.650539	dec_ug-resp_pmod_option_presented	1.650539	15	n/a	10	9.432078e-02
319.491970	1.650539	dec_ug-resp_pmod_choice	1.650539	15	n/a	10	9.432078e-02
329.542100	1.266684	dec_ug-resp_pmod_accept	1.266684	15	n/a	8	2.276541e-01
329.542100	1.266684	dec_ug-resp_pmod_option_presented	1.266684	15	n/a	8	2.276541e-01
329.542100	1.266684	dec_ug-resp_pmod_choice	1.266684	15	n/a	8	2.276541e-01
337.592200	1.599989	dec_dg-prop_pmod_choice	1.599989	17	n/a	16	-2.923709e-01
348.642030	1.733704	dec_ug-prop_pmod_choice	1.733704	23	n/a	13	2.575979e-01
358.192100	1.700047	dec_ug-resp_pmod_accept	1.700047	21	n/a	14	9.432078e-02
358.192100	1.700047	dec_ug-resp_pmod_option_presented	1.700047	21	n/a	14	9.432078e-02
358.192100	1.700047	dec_ug-resp_pmod_choice	1.700047	21	n/a	14	9.432078e-02
370.241640	1.767048	dec_ug-prop_pmod_choice	1.767048	17	n/a	12	1.169329e-01
383.291600	1.817277	dec_dg-prop_pmod_choice	1.817277	25	n/a	20	-1.511944e-01
