onset	duration	trial_type	response_time	Endowment	Endowment_pmod	Decision	Decision_pmod
4.997802	2	cue_ug-resp_pmod	n/a	15	-6	n/a	n/a
14.547966	2	cue_ug-prop_pmod	n/a	23	2	n/a	n/a
24.097738	2	cue_ug-resp_pmod	n/a	19	-2	n/a	n/a
36.148080	2	cue_dict_pmod	n/a	25	5	n/a	n/a
45.697803	2	cue_ug-prop_pmod	n/a	17	-4	n/a	n/a
56.747723	2	cue_ug-prop_pmod	n/a	15	-6	n/a	n/a
64.797700	2	cue_ug-resp_pmod	n/a	25	4	n/a	n/a
72.847700	2	cue_ug-resp_pmod	n/a	21	0	n/a	n/a
85.897650	2	cue_dict_pmod	n/a	19	-1	n/a	n/a
98.947670	2	cue_dict_pmod	n/a	23	3	n/a	n/a
106.997635	2	cue_dict_pmod	n/a	21	1	n/a	n/a
116.547490	2	cue_ug-resp_pmod	n/a	21	0	n/a	n/a
126.597460	2	cue_dict_pmod	n/a	21	1	n/a	n/a
134.647520	2	cue_dict_pmod	n/a	21	1	n/a	n/a
144.214500	2	cue_dict_pmod	n/a	17	-3	n/a	n/a
152.264040	2	cue_ug-resp_pmod	n/a	23	2	n/a	n/a
160.314150	2	cue_ug-prop_pmod	n/a	21	0	n/a	n/a
169.863920	2	cue_ug-resp_pmod	n/a	17	-4	n/a	n/a
181.914050	2	cue_ug-prop_pmod	n/a	25	4	n/a	n/a
199.963840	2	cue_ug-prop_pmod	n/a	23	2	n/a	n/a
209.513820	2	cue_dict_pmod	n/a	21	1	n/a	n/a
219.563840	2	cue_ug-resp_pmod	n/a	21	0	n/a	n/a
232.613820	2	cue_dict_pmod	n/a	17	-3	n/a	n/a
242.163960	2	cue_ug-prop_pmod	n/a	21	0	n/a	n/a
253.713750	2	cue_ug-resp_pmod	n/a	19	-2	n/a	n/a
267.263820	2	cue_ug-prop_pmod	n/a	21	0	n/a	n/a
275.313700	2	cue_dict_pmod	n/a	21	1	n/a	n/a
287.363600	2	cue_dict_pmod	n/a	15	-5	n/a	n/a
302.413480	2	cue_ug-prop_pmod	n/a	25	4	n/a	n/a
317.463470	2	cue_ug-prop_pmod	n/a	23	2	n/a	n/a
327.513520	2	cue_dict_pmod	n/a	17	-3	n/a	n/a
335.563320	2	cue_ug-resp_pmod	n/a	25	4	n/a	n/a
345.613220	2	cue_ug-resp_pmod	n/a	23	2	n/a	n/a
355.663360	2	cue_ug-prop_pmod	n/a	23	2	n/a	n/a
365.713200	2	cue_ug-resp_pmod	n/a	19	-2	n/a	n/a
376.763200	2	cue_ug-prop_pmod	n/a	17	-4	n/a	n/a
9.030570	1.850205	dec_dg-prop_pmod_choice	1.850205	15	n/a	14	-3.003494e-01
18.580470	1.333528	dec_ug-resp_pmod_reject	1.333528	23	n/a	0	-2.568217e-01
18.580470	1.333528	dec_ug-resp_pmod_option_presented	1.333528	23	n/a	0	4.752608e-02
18.580470	1.333528	dec_ug-resp_pmod_choice	1.333528	23	n/a	0	-2.568217e-01
26.630306	1.183687	dec_dg-prop_pmod_choice	1.183687	19	n/a	15	-1.564898e-01
40.180225	1.666936	dec_ug-prop_pmod_choice	1.666936	25	n/a	14	2.780082e-01
51.230347	2.316964	dec_ug-resp_pmod_accept	2.316964	17	n/a	12	3.729590e-02
51.230347	2.316964	dec_ug-resp_pmod_option_presented	2.316964	17	n/a	12	3.729590e-02
51.230347	2.316964	dec_ug-resp_pmod_choice	2.316964	17	n/a	12	3.729590e-02
59.280205	1.333562	dec_ug-resp_pmod_accept	1.333562	15	n/a	8	2.098449e-01
59.280205	1.333562	dec_ug-resp_pmod_option_presented	1.333562	15	n/a	8	2.098449e-01
59.280205	1.333562	dec_ug-resp_pmod_choice	1.333562	15	n/a	8	2.098449e-01
67.329390	1.217387	dec_dg-prop_pmod_choice	1.217387	25	n/a	23	-2.870161e-01
78.380264	1.350107	dec_dg-prop_pmod_choice	1.350107	21	n/a	17	-1.765399e-01
91.429660	2.517291	dec_ug-prop_pmod_choice	2.517291	19	n/a	10	3.116924e-01
101.480170	2.733503	dec_ug-prop_pmod_choice	2.733503	23	n/a	19	1.192126e-02
111.030050	1.833453	dec_ug-prop_pmod_choice	1.833453	21	n/a	17	2.848440e-02
119.080450	1.599801	dec_dg-prop_pmod_choice	1.599801	21	n/a	17	-1.765399e-01
129.130400	1.699664	dec_ug-prop_pmod_choice	1.699664	21	n/a	12	2.665796e-01
138.679960	4.000000	missed_trial	n/a	21	n/a	n/a	n/a
146.746340	1.967103	dec_ug-prop_pmod_choice	1.967103	17	n/a	9	3.085964e-01
154.796520	1.700165	dec_dg-prop_pmod_choice	1.700165	23	n/a	16	-6.266827e-02
164.346450	2.383295	dec_ug-resp_pmod_accept	2.383295	21	n/a	17	-6.634555e-02
164.346450	2.383295	dec_ug-resp_pmod_option_presented	2.383295	21	n/a	17	-6.634555e-02
164.346450	2.383295	dec_ug-resp_pmod_choice	2.383295	21	n/a	17	-6.634555e-02
172.396710	1.283284	dec_dg-prop_pmod_choice	1.283284	17	n/a	16	-3.081926e-01
187.445980	1.684299	dec_ug-resp_pmod_accept	1.684299	25	n/a	14	1.831783e-01
187.445980	1.684299	dec_ug-resp_pmod_option_presented	1.684299	25	n/a	14	1.831783e-01
187.445980	1.684299	dec_ug-resp_pmod_choice	1.684299	25	n/a	14	1.831783e-01
203.996600	2.083293	dec_ug-resp_pmod_reject	2.083293	23	n/a	0	-2.133435e-01
203.996600	2.083293	dec_ug-resp_pmod_option_presented	2.083293	23	n/a	0	-2.133435e-01
203.996600	2.083293	dec_ug-resp_pmod_choice	2.083293	23	n/a	0	-2.568217e-01
212.046260	2.350320	dec_ug-prop_pmod_choice	2.350320	21	n/a	14	1.713415e-01
225.096590	1.216490	dec_dg-prop_pmod_choice	1.216490	21	n/a	20	-3.193971e-01
236.647000	2.216096	dec_ug-prop_pmod_choice	2.216096	17	n/a	9	3.085964e-01
246.196240	1.516514	dec_ug-resp_pmod_accept	1.516514	21	n/a	14	7.651159e-02
246.196240	1.516514	dec_ug-resp_pmod_option_presented	1.516514	21	n/a	14	7.651159e-02
246.196240	1.516514	dec_ug-resp_pmod_choice	1.516514	21	n/a	14	7.651159e-02
257.746120	1.267060	dec_dg-prop_pmod_choice	1.267060	19	n/a	15	-1.564898e-01
269.796170	2.233533	dec_ug-resp_pmod_accept	2.233533	21	n/a	12	1.717497e-01
269.796170	2.233533	dec_ug-resp_pmod_option_presented	2.233533	21	n/a	12	1.717497e-01
269.796170	2.233533	dec_ug-resp_pmod_choice	2.233533	21	n/a	12	1.717497e-01
277.846300	2.450092	dec_ug-prop_pmod_choice	2.450092	21	n/a	12	2.665796e-01
289.896000	1.683709	dec_ug-prop_pmod_choice	1.683709	15	n/a	10	1.713415e-01
304.945950	1.383708	dec_ug-resp_pmod_accept	1.383708	25	n/a	17	6.317826e-02
304.945950	1.383708	dec_ug-resp_pmod_option_presented	1.383708	25	n/a	17	6.317826e-02
304.945950	1.383708	dec_ug-resp_pmod_choice	1.383708	25	n/a	17	6.317826e-02
319.995940	1.283613	dec_ug-resp_pmod_accept	1.283613	23	n/a	19	-8.290870e-02
319.995940	1.283613	dec_ug-resp_pmod_option_presented	1.283613	23	n/a	19	-8.290870e-02
319.995940	1.283613	dec_ug-resp_pmod_choice	1.283613	23	n/a	19	-8.290870e-02
330.046000	1.866746	dec_ug-prop_pmod_choice	1.866746	17	n/a	12	1.321259e-01
338.096620	1.482780	dec_dg-prop_pmod_choice	1.482780	25	n/a	20	-1.670161e-01
348.146580	2.082490	dec_dg-prop_pmod_choice	2.082490	23	n/a	19	-1.931031e-01
358.195830	1.066758	dec_ug-resp_pmod_accept	1.066758	23	n/a	13	1.779609e-01
358.195830	1.066758	dec_ug-resp_pmod_option_presented	1.066758	23	n/a	13	1.779609e-01
358.195830	1.066758	dec_ug-resp_pmod_choice	1.066758	23	n/a	13	1.779609e-01
371.246460	1.500076	dec_dg-prop_pmod_choice	1.500076	19	n/a	15	-1.564898e-01
379.295620	2.516885	dec_ug-resp_pmod_reject	2.516885	17	n/a	0	-2.568217e-01
379.295620	2.516885	dec_ug-resp_pmod_option_presented	2.516885	17	n/a	0	-1.979982e-01
379.295620	2.516885	dec_ug-resp_pmod_choice	2.516885	17	n/a	0	-2.568217e-01
