onset	duration	trial_type	response_time	Endowment	Endowment_pmod	Decision	Decision_pmod
5.003434	2	cue_dict_pmod	n/a	25	4	n/a	n/a
14.552617	2	cue_ug-resp_pmod	n/a	17	-2	n/a	n/a
26.602848	2	cue_ug-resp_pmod	n/a	19	0	n/a	n/a
37.652653	2	cue_dict_pmod	n/a	21	0	n/a	n/a
47.202690	2	cue_ug-prop_pmod	n/a	19	-1	n/a	n/a
56.752670	2	cue_ug-prop_pmod	n/a	17	-3	n/a	n/a
68.802700	2	cue_dict_pmod	n/a	17	-4	n/a	n/a
85.352680	2	cue_ug-resp_pmod	n/a	15	-4	n/a	n/a
96.402780	2	cue_dict_pmod	n/a	15	-6	n/a	n/a
105.952530	2	cue_ug-prop_pmod	n/a	25	5	n/a	n/a
114.003170	2	cue_dict_pmod	n/a	21	0	n/a	n/a
122.052630	2	cue_ug-prop_pmod	n/a	15	-5	n/a	n/a
131.602720	2	cue_ug-prop_pmod	n/a	25	5	n/a	n/a
139.652600	2	cue_ug-prop_pmod	n/a	19	-1	n/a	n/a
151.202770	2	cue_ug-prop_pmod	n/a	17	-3	n/a	n/a
161.252940	2	cue_ug-resp_pmod	n/a	15	-4	n/a	n/a
169.302690	2	cue_ug-prop_pmod	n/a	23	3	n/a	n/a
178.852750	2	cue_ug-resp_pmod	n/a	19	0	n/a	n/a
186.902860	2	cue_dict_pmod	n/a	19	-2	n/a	n/a
201.953160	2	cue_ug-prop_pmod	n/a	17	-3	n/a	n/a
210.003100	2	cue_ug-resp_pmod	n/a	19	0	n/a	n/a
220.052780	2	cue_ug-prop_pmod	n/a	19	-1	n/a	n/a
230.102870	2	cue_dict_pmod	n/a	23	2	n/a	n/a
245.152940	2	cue_dict_pmod	n/a	21	0	n/a	n/a
255.202700	2	cue_ug-resp_pmod	n/a	17	-2	n/a	n/a
267.252930	2	cue_dict_pmod	n/a	25	4	n/a	n/a
277.302730	2	cue_ug-resp_pmod	n/a	23	4	n/a	n/a
285.352870	2	cue_ug-prop_pmod	n/a	23	3	n/a	n/a
298.402830	2	cue_ug-resp_pmod	n/a	15	-4	n/a	n/a
307.953200	2	cue_ug-resp_pmod	n/a	25	6	n/a	n/a
321.003170	2	cue_ug-resp_pmod	n/a	19	0	n/a	n/a
331.053000	2	cue_dict_pmod	n/a	25	4	n/a	n/a
342.103030	2	cue_dict_pmod	n/a	23	2	n/a	n/a
350.152950	2	cue_ug-resp_pmod	n/a	25	6	n/a	n/a
365.202940	2	cue_ug-prop_pmod	n/a	19	-1	n/a	n/a
375.252870	2	cue_dict_pmod	n/a	15	-6	n/a	n/a
9.035321	1.366844	dec_ug-prop_pmod_choice	1.366844	25	n/a	17	2.136489e-01
17.085297	0.733371	dec_dg-prop_pmod_choice	0.733371	17	n/a	16	-1.947062e-01
32.135380	1.449921	dec_dg-prop_pmod_choice	1.449921	19	n/a	18	-2.008981e-01
41.685230	1.600264	dec_ug-prop_pmod_choice	1.600264	21	n/a	12	3.222203e-01
51.235287	3.016995	dec_ug-resp_pmod_reject	3.016995	19	n/a	0	4.551418e-02
51.235287	3.016995	dec_ug-resp_pmod_option_presented	3.016995	19	n/a	0	4.551418e-02
51.235287	3.016995	dec_ug-resp_pmod_choice	3.016995	19	n/a	0	-1.650121e-01
59.285070	4.000000	missed_trial	n/a	17	n/a	n/a	n/a
72.835470	1.999944	dec_ug-prop_pmod_choice	1.999944	17	n/a	16	-4.752756e-02
90.884970	1.700694	dec_dg-prop_pmod_choice	1.700694	15	n/a	14	-1.868630e-01
100.435240	1.117015	dec_ug-prop_pmod_choice	1.117015	15	n/a	12	9.364891e-02
108.485270	1.833619	dec_ug-resp_pmod_accept	1.833619	25	n/a	14	2.749879e-01
108.485270	1.833619	dec_ug-resp_pmod_option_presented	1.833619	25	n/a	14	2.749879e-01
108.485270	1.833619	dec_ug-resp_pmod_choice	1.833619	25	n/a	14	2.749879e-01
116.535160	1.333199	dec_ug-prop_pmod_choice	1.333199	21	n/a	14	2.269822e-01
126.085960	1.382828	dec_ug-resp_pmod_accept	1.382828	15	n/a	8	3.016545e-01
126.085960	1.382828	dec_ug-resp_pmod_option_presented	1.382828	15	n/a	8	3.016545e-01
126.085960	1.382828	dec_ug-resp_pmod_choice	1.382828	15	n/a	8	3.016545e-01
134.135330	2.533596	dec_ug-resp_pmod_reject	2.533596	25	n/a	0	-1.650121e-01
134.135330	2.533596	dec_ug-resp_pmod_option_presented	2.533596	25	n/a	0	1.549879e-01
134.135330	2.533596	dec_ug-resp_pmod_choice	2.533596	25	n/a	0	-1.650121e-01
143.685000	2.000540	dec_ug-resp_pmod_reject	2.000540	19	n/a	0	4.551418e-02
143.685000	2.000540	dec_ug-resp_pmod_option_presented	2.000540	19	n/a	0	4.551418e-02
143.685000	2.000540	dec_ug-resp_pmod_choice	2.000540	19	n/a	0	-1.650121e-01
153.735170	1.966939	dec_ug-resp_pmod_reject	1.966939	17	n/a	0	-1.650121e-01
153.735170	1.966939	dec_ug-resp_pmod_option_presented	1.966939	17	n/a	0	1.291055e-01
153.735170	1.966939	dec_ug-resp_pmod_choice	1.966939	17	n/a	0	-1.650121e-01
163.785140	1.100459	dec_dg-prop_pmod_choice	1.100459	15	n/a	14	-1.868630e-01
173.335000	2.133891	dec_ug-resp_pmod_reject	2.133891	23	n/a	0	-1.650121e-01
173.335000	2.133891	dec_ug-resp_pmod_option_presented	2.133891	23	n/a	0	-1.215339e-01
173.335000	2.133891	dec_ug-resp_pmod_choice	2.133891	23	n/a	0	-1.650121e-01
181.385270	2.833342	dec_dg-prop_pmod_choice	2.833342	19	n/a	15	-4.300337e-02
192.435230	0.900214	dec_ug-prop_pmod_choice	0.900214	19	n/a	13	2.094384e-01
204.485290	2.250075	dec_ug-resp_pmod_reject	2.250075	17	n/a	0	1.291055e-01
204.485290	2.250075	dec_ug-resp_pmod_option_presented	2.250075	17	n/a	0	1.291055e-01
204.485290	2.250075	dec_ug-resp_pmod_choice	2.250075	17	n/a	0	-1.650121e-01
212.536030	0.816211	dec_dg-prop_pmod_choice	0.816211	19	n/a	18	-2.008981e-01
222.585360	2.016824	dec_ug-resp_pmod_reject	2.016824	19	n/a	0	-1.650121e-01
222.585360	2.016824	dec_ug-resp_pmod_option_presented	2.016824	19	n/a	0	-1.123806e-01
222.585360	2.016824	dec_ug-resp_pmod_choice	2.016824	19	n/a	0	-1.650121e-01
232.635530	2.399920	dec_ug-prop_pmod_choice	2.399920	23	n/a	19	6.756196e-02
247.686080	2.149360	dec_ug-prop_pmod_choice	2.149360	21	n/a	17	8.412510e-02
257.735320	2.833612	dec_dg-prop_pmod_choice	2.833612	17	n/a	16	-1.947062e-01
269.785340	1.983582	dec_ug-prop_pmod_choice	1.983582	25	n/a	20	9.364891e-02
279.836120	2.099707	dec_dg-prop_pmod_choice	2.099707	23	n/a	22	-2.100514e-01
290.885160	2.900545	dec_ug-resp_pmod_accept	2.900545	23	n/a	13	2.697705e-01
290.885160	2.900545	dec_ug-resp_pmod_option_presented	2.900545	23	n/a	13	2.697705e-01
290.885160	2.900545	dec_ug-resp_pmod_choice	2.900545	23	n/a	13	2.697705e-01
302.436130	2.149190	dec_dg-prop_pmod_choice	2.149190	15	n/a	10	7.980364e-02
313.485140	2.633814	dec_dg-prop_pmod_choice	2.633814	25	n/a	23	-1.735297e-01
323.535520	2.850128	dec_dg-prop_pmod_choice	2.850128	19	n/a	18	-2.008981e-01
336.585420	1.483695	dec_ug-prop_pmod_choice	1.483695	25	n/a	17	2.136489e-01
344.636170	3.016415	dec_ug-prop_pmod_choice	3.016415	23	n/a	13	3.284315e-01
352.686200	2.999482	dec_dg-prop_pmod_choice	2.999482	25	n/a	20	-5.352969e-02
367.735500	2.383373	dec_ug-resp_pmod_accept	2.383373	19	n/a	10	3.086721e-01
367.735500	2.383373	dec_ug-resp_pmod_option_presented	2.383373	19	n/a	10	3.086721e-01
367.735500	2.383373	dec_ug-resp_pmod_choice	2.383373	19	n/a	10	3.086721e-01
379.285370	1.550364	dec_ug-prop_pmod_choice	1.550364	15	n/a	14	-3.968442e-02
