onset	duration	trial_type	response_time	Endowment	Endowment_pmod	Decision	Decision_pmod
4.990227	2	cue_ug-resp_pmod	n/a	23	3	n/a	n/a
18.040470	2	cue_dict_pmod	n/a	25	6	n/a	n/a
26.090467	2	cue_ug-prop_pmod	n/a	23	4	n/a	n/a
36.140377	2	cue_ug-prop_pmod	n/a	23	4	n/a	n/a
45.690330	2	cue_ug-resp_pmod	n/a	21	1	n/a	n/a
55.240395	2	cue_dict_pmod	n/a	17	-2	n/a	n/a
66.790220	2	cue_ug-prop_pmod	n/a	19	0	n/a	n/a
78.840230	2	cue_ug-prop_pmod	n/a	25	6	n/a	n/a
88.390230	2	cue_ug-resp_pmod	n/a	17	-3	n/a	n/a
98.440150	2	cue_ug-resp_pmod	n/a	15	-5	n/a	n/a
106.490290	2	cue_dict_pmod	n/a	21	2	n/a	n/a
114.540090	2	cue_ug-resp_pmod	n/a	25	5	n/a	n/a
124.589935	2	cue_ug-prop_pmod	n/a	15	-4	n/a	n/a
134.156940	2	cue_dict_pmod	n/a	21	2	n/a	n/a
146.206730	2	cue_ug-prop_pmod	n/a	15	-4	n/a	n/a
154.256850	2	cue_dict_pmod	n/a	15	-4	n/a	n/a
162.306810	2	cue_ug-prop_pmod	n/a	17	-2	n/a	n/a
177.356830	2	cue_ug-prop_pmod	n/a	23	4	n/a	n/a
185.406860	2	cue_dict_pmod	n/a	19	0	n/a	n/a
195.456790	2	cue_dict_pmod	n/a	21	2	n/a	n/a
210.506670	2	cue_dict_pmod	n/a	19	0	n/a	n/a
218.556610	2	cue_ug-resp_pmod	n/a	17	-3	n/a	n/a
226.606750	2	cue_ug-resp_pmod	n/a	25	5	n/a	n/a
238.156650	2	cue_dict_pmod	n/a	15	-4	n/a	n/a
253.206380	2	cue_ug-prop_pmod	n/a	15	-4	n/a	n/a
261.256600	2	cue_ug-resp_pmod	n/a	15	-5	n/a	n/a
276.306640	2	cue_dict_pmod	n/a	17	-2	n/a	n/a
287.856700	2	cue_dict_pmod	n/a	25	6	n/a	n/a
297.406400	2	cue_ug-prop_pmod	n/a	19	0	n/a	n/a
305.456400	2	cue_ug-prop_pmod	n/a	19	0	n/a	n/a
318.506300	2	cue_ug-prop_pmod	n/a	19	0	n/a	n/a
336.556460	2	cue_dict_pmod	n/a	17	-2	n/a	n/a
348.106200	2	cue_ug-resp_pmod	n/a	21	1	n/a	n/a
356.156280	2	cue_ug-resp_pmod	n/a	23	3	n/a	n/a
371.206050	2	cue_ug-resp_pmod	n/a	17	-3	n/a	n/a
379.256040	2	cue_ug-resp_pmod	n/a	21	1	n/a	n/a
10.523086	1.149979	dec_dg-prop_pmod_choice	1.149979	23	n/a	16	1.227075e-01
20.572980	1.683124	dec_ug-prop_pmod_choice	1.683124	25	n/a	17	1.162420e-01
28.623692	1.999491	dec_ug-resp_pmod_reject	1.999491	23	n/a	0	8.801054e-02
28.623692	1.999491	dec_ug-resp_pmod_option_presented	1.999491	23	n/a	0	8.801054e-02
28.623692	1.999491	dec_ug-resp_pmod_choice	1.999491	23	n/a	0	-8.590250e-02
40.173420	1.966452	dec_ug-resp_pmod_accept	1.966452	23	n/a	16	2.184453e-01
40.173420	1.966452	dec_ug-resp_pmod_option_presented	1.966452	23	n/a	16	2.184453e-01
40.173420	1.966452	dec_ug-resp_pmod_choice	1.966452	23	n/a	16	2.184453e-01
49.722750	1.450263	dec_dg-prop_pmod_choice	1.450263	21	n/a	14	1.516930e-01
59.272890	1.400101	dec_ug-prop_pmod_choice	1.400101	17	n/a	16	-1.449344e-01
69.323550	1.966045	dec_ug-resp_pmod_reject	1.966045	19	n/a	0	-3.327092e-02
69.323550	1.966045	dec_ug-resp_pmod_option_presented	1.966045	19	n/a	0	-3.327092e-02
69.323550	1.966045	dec_ug-resp_pmod_choice	1.966045	19	n/a	0	-8.590250e-02
82.873500	1.682844	dec_ug-resp_pmod_reject	1.682844	25	n/a	0	-8.590250e-02
82.873500	1.682844	dec_ug-resp_pmod_option_presented	1.682844	25	n/a	0	-5.902503e-03
82.873500	1.682844	dec_ug-resp_pmod_choice	1.682844	25	n/a	0	-8.590250e-02
90.922554	1.633759	dec_dg-prop_pmod_choice	1.633759	17	n/a	9	2.889479e-01
100.972336	2.767125	dec_dg-prop_pmod_choice	2.767125	15	n/a	12	1.835962e-02
109.023020	2.933116	dec_ug-prop_pmod_choice	2.933116	21	n/a	17	-1.328178e-02
117.072360	2.217031	dec_dg-prop_pmod_choice	2.217031	25	n/a	23	-1.016404e-01
128.623370	4.000000	missed_trial	n/a	15	n/a	n/a	n/a
136.689070	1.683425	dec_ug-prop_pmod_choice	1.683425	21	n/a	20	-1.561389e-01
148.739210	1.300060	dec_ug-resp_pmod_reject	1.300060	15	n/a	0	-8.590250e-02
148.739210	1.300060	dec_ug-resp_pmod_option_presented	1.300060	15	n/a	0	-1.923584e-02
148.739210	1.300060	dec_ug-resp_pmod_choice	1.300060	15	n/a	0	-8.590250e-02
156.789100	1.950374	dec_ug-prop_pmod_choice	1.950374	15	n/a	12	-3.757967e-03
167.839220	2.349991	dec_ug-resp_pmod_reject	2.349991	17	n/a	0	2.082151e-01
167.839220	2.349991	dec_ug-resp_pmod_option_presented	2.349991	17	n/a	0	2.082151e-01
167.839220	2.349991	dec_ug-resp_pmod_choice	2.349991	17	n/a	0	-8.590250e-02
179.888980	2.667182	dec_ug-resp_pmod_accept	2.667182	23	n/a	19	8.801054e-02
179.888980	2.667182	dec_ug-resp_pmod_option_presented	2.667182	23	n/a	19	8.801054e-02
179.888980	2.667182	dec_ug-resp_pmod_choice	2.667182	23	n/a	19	8.801054e-02
187.938890	1.400411	dec_ug-prop_pmod_choice	1.400411	19	n/a	18	-1.511264e-01
197.988820	1.367006	dec_ug-prop_pmod_choice	1.367006	21	n/a	14	1.295754e-01
213.038930	1.150980	dec_ug-prop_pmod_choice	1.150980	19	n/a	15	6.768349e-03
221.089050	1.450111	dec_dg-prop_pmod_choice	1.450111	17	n/a	16	-1.228168e-01
230.638980	1.633284	dec_dg-prop_pmod_choice	1.633284	25	n/a	20	1.835962e-02
240.688950	1.033368	dec_ug-prop_pmod_choice	1.033368	15	n/a	10	1.295754e-01
255.738800	2.233610	dec_ug-resp_pmod_accept	2.233610	15	n/a	8	3.807642e-01
255.738800	2.233610	dec_ug-resp_pmod_option_presented	2.233610	15	n/a	8	3.807642e-01
255.738800	2.233610	dec_ug-resp_pmod_choice	2.233610	15	n/a	8	3.807642e-01
266.788700	1.233589	dec_dg-prop_pmod_choice	1.233589	15	n/a	14	-1.149737e-01
280.338650	1.850293	dec_ug-prop_pmod_choice	1.850293	17	n/a	16	-1.449344e-01
291.888700	1.750266	dec_ug-prop_pmod_choice	1.750266	25	n/a	23	-1.237580e-01
299.938750	1.850414	dec_ug-resp_pmod_reject	1.850414	19	n/a	0	2.298870e-01
299.938750	1.850414	dec_ug-resp_pmod_option_presented	1.850414	19	n/a	0	2.298870e-01
299.938750	1.850414	dec_ug-resp_pmod_choice	1.850414	19	n/a	0	-8.590250e-02
310.988600	1.567138	dec_ug-resp_pmod_reject	1.567138	19	n/a	0	-8.590250e-02
310.988600	1.567138	dec_ug-resp_pmod_option_presented	1.567138	19	n/a	0	1.246238e-01
310.988600	1.567138	dec_ug-resp_pmod_choice	1.567138	19	n/a	0	-8.590250e-02
324.038730	1.783522	dec_ug-resp_pmod_reject	1.783522	19	n/a	0	1.246238e-01
324.038730	1.783522	dec_ug-resp_pmod_option_presented	1.783522	19	n/a	0	1.246238e-01
324.038730	1.783522	dec_ug-resp_pmod_choice	1.783522	19	n/a	0	-8.590250e-02
340.588620	1.917100	dec_ug-prop_pmod_choice	1.917100	17	n/a	12	9.035968e-02
350.638400	1.750318	dec_dg-prop_pmod_choice	1.750318	21	n/a	17	8.835815e-03
361.688350	0.967382	dec_dg-prop_pmod_choice	0.967382	23	n/a	19	-7.727332e-03
373.739140	1.849438	dec_dg-prop_pmod_choice	1.849438	17	n/a	14	-5.169787e-03
383.288360	2.417072	dec_dg-prop_pmod_choice	2.417072	21	n/a	17	8.835815e-03
