onset	duration	trial_type	response_time	Endowment	Endowment_pmod	Decision	Decision_pmod
4.991532	2	cue_ug-resp_pmod	n/a	17	-2	n/a	n/a
16.534544	2	cue_ug-resp_pmod	n/a	25	6	n/a	n/a
29.578812	2	cue_dict_pmod	n/a	15	-5	n/a	n/a
43.123060	2	cue_dict_pmod	n/a	17	-3	n/a	n/a
56.167004	2	cue_ug-resp_pmod	n/a	15	-4	n/a	n/a
69.211040	2	cue_ug-resp_pmod	n/a	17	-2	n/a	n/a
77.268090	2	cue_dict_pmod	n/a	25	5	n/a	n/a
85.307530	2	cue_ug-prop_pmod	n/a	23	4	n/a	n/a
94.849050	2	cue_dict_pmod	n/a	21	1	n/a	n/a
104.389960	2	cue_dict_pmod	n/a	19	-1	n/a	n/a
114.431530	2	cue_ug-prop_pmod	n/a	17	-2	n/a	n/a
129.477250	2	cue_ug-prop_pmod	n/a	19	0	n/a	n/a
137.533830	2	cue_ug-resp_pmod	n/a	17	-2	n/a	n/a
147.575620	2	cue_ug-resp_pmod	n/a	15	-4	n/a	n/a
157.116460	2	cue_ug-prop_pmod	n/a	19	0	n/a	n/a
165.173460	2	cue_dict_pmod	n/a	25	5	n/a	n/a
173.196910	2	cue_ug-prop_pmod	n/a	15	-4	n/a	n/a
183.238360	2	cue_dict_pmod	n/a	15	-5	n/a	n/a
192.779400	2	cue_ug-resp_pmod	n/a	25	6	n/a	n/a
203.821760	2	cue_dict_pmod	n/a	23	3	n/a	n/a
217.366380	2	cue_ug-prop_pmod	n/a	15	-4	n/a	n/a
227.407910	2	cue_ug-resp_pmod	n/a	19	0	n/a	n/a
238.950580	2	cue_ug-prop_pmod	n/a	19	0	n/a	n/a
248.491680	2	cue_ug-prop_pmod	n/a	23	4	n/a	n/a
256.531920	2	cue_ug-resp_pmod	n/a	19	0	n/a	n/a
271.577550	2	cue_ug-prop_pmod	n/a	25	6	n/a	n/a
279.634250	2	cue_dict_pmod	n/a	15	-5	n/a	n/a
294.679870	2	cue_ug-prop_pmod	n/a	15	-4	n/a	n/a
308.224300	2	cue_dict_pmod	n/a	25	5	n/a	n/a
318.265750	2	cue_ug-resp_pmod	n/a	19	0	n/a	n/a
326.322480	2	cue_dict_pmod	n/a	21	1	n/a	n/a
334.362640	2	cue_ug-resp_pmod	n/a	21	2	n/a	n/a
346.388800	2	cue_ug-prop_pmod	n/a	21	2	n/a	n/a
354.428680	2	cue_ug-resp_pmod	n/a	23	4	n/a	n/a
362.469270	2	cue_ug-prop_pmod	n/a	17	-2	n/a	n/a
380.516970	2	cue_dict_pmod	n/a	15	-5	n/a	n/a
9.025148	2.689011	dec_dg-prop_pmod_choice	2.689011	17	n/a	9	1.531774e-01
22.068617	1.988203	dec_dg-prop_pmod_choice	1.988203	25	n/a	17	2.589198e-03
33.612724	1.469858	dec_ug-prop_pmod_choice	1.469858	15	n/a	12	-5.719706e-02
48.656630	1.321324	dec_ug-prop_pmod_choice	1.321324	17	n/a	9	2.133912e-01
61.700302	1.088022	dec_dg-prop_pmod_choice	1.088022	15	n/a	10	1.592253e-02
71.745060	1.601909	dec_dg-prop_pmod_choice	1.601909	17	n/a	14	-1.409402e-01
79.785280	1.985562	dec_ug-prop_pmod_choice	1.985562	25	n/a	17	6.280294e-02
89.324190	4.000000	missed_trial	n/a	23	n/a	n/a	n/a
98.882454	0.969794	dec_ug-prop_pmod_choice	0.969794	21	n/a	14	7.613627e-02
106.923706	1.369853	dec_ug-prop_pmod_choice	1.369853	19	n/a	10	2.164871e-01
119.964420	1.972547	dec_ug-resp_pmod_accept	1.972547	17	n/a	9	2.437842e-01
119.964420	1.972547	dec_ug-resp_pmod_option_presented	1.972547	17	n/a	9	2.437842e-01
119.964420	1.972547	dec_ug-resp_pmod_choice	1.972547	17	n/a	9	2.437842e-01
132.011380	1.785690	dec_ug-resp_pmod_accept	1.785690	19	n/a	10	2.468802e-01
132.011380	1.785690	dec_ug-resp_pmod_option_presented	1.785690	19	n/a	10	2.468802e-01
132.011380	1.785690	dec_ug-resp_pmod_choice	1.785690	19	n/a	10	2.468802e-01
140.067290	1.269242	dec_dg-prop_pmod_choice	1.269242	17	n/a	14	-1.409402e-01
151.608890	1.287057	dec_dg-prop_pmod_choice	1.287057	15	n/a	10	1.592253e-02
159.650130	2.353714	dec_ug-resp_pmod_accept	2.353714	19	n/a	13	8.898543e-02
159.650130	2.353714	dec_ug-resp_pmod_option_presented	2.353714	19	n/a	13	8.898543e-02
159.650130	2.353714	dec_ug-resp_pmod_choice	2.353714	19	n/a	13	8.898543e-02
167.690190	1.887095	dec_ug-prop_pmod_choice	1.887095	25	n/a	20	-5.719706e-02
175.730210	2.086161	dec_ug-resp_pmod_reject	2.086161	15	n/a	0	-2.680405e-02
175.730210	2.086161	dec_ug-resp_pmod_option_presented	2.086161	15	n/a	0	-2.680405e-02
175.730210	2.086161	dec_ug-resp_pmod_choice	2.086161	15	n/a	0	-2.268040e-01
187.272140	2.153846	dec_ug-prop_pmod_choice	2.153846	15	n/a	10	7.613627e-02
198.313100	1.721466	dec_dg-prop_pmod_choice	1.721466	25	n/a	20	-1.174108e-01
207.854750	1.070420	dec_ug-prop_pmod_choice	1.070420	23	n/a	19	-8.328402e-02
219.899540	1.819203	dec_ug-resp_pmod_accept	1.819203	15	n/a	8	2.398626e-01
219.899540	1.819203	dec_ug-resp_pmod_option_presented	1.819203	15	n/a	8	2.398626e-01
219.899540	1.819203	dec_ug-resp_pmod_choice	1.819203	15	n/a	8	2.398626e-01
231.440960	1.871461	dec_dg-prop_pmod_choice	1.871461	19	n/a	18	-2.647792e-01
242.983960	2.671539	dec_ug-resp_pmod_reject	2.671539	19	n/a	0	-1.627773e-02
242.983960	2.671539	dec_ug-resp_pmod_option_presented	2.671539	19	n/a	0	-1.627773e-02
242.983960	2.671539	dec_ug-resp_pmod_choice	2.671539	19	n/a	0	-2.268040e-01
251.024950	2.536948	dec_ug-resp_pmod_accept	2.536948	23	n/a	13	2.079786e-01
251.024950	2.536948	dec_ug-resp_pmod_option_presented	2.536948	23	n/a	13	2.079786e-01
251.024950	2.536948	dec_ug-resp_pmod_choice	2.536948	23	n/a	13	2.079786e-01
259.065030	1.602908	dec_dg-prop_pmod_choice	1.602908	19	n/a	15	-1.068845e-01
274.110440	1.552985	dec_ug-resp_pmod_reject	1.552985	25	n/a	0	-2.268040e-01
274.110440	1.552985	dec_ug-resp_pmod_option_presented	1.552985	25	n/a	0	-1.468040e-01
274.110440	1.552985	dec_ug-resp_pmod_choice	1.552985	25	n/a	0	-2.268040e-01
282.166720	4.000000	missed_trial	n/a	15	n/a	n/a	n/a
298.713530	2.537311	dec_ug-resp_pmod_reject	2.537311	15	n/a	0	1.065293e-01
298.713530	2.537311	dec_ug-resp_pmod_option_presented	2.537311	15	n/a	0	1.065293e-01
298.713530	2.537311	dec_ug-resp_pmod_choice	2.537311	15	n/a	0	-2.268040e-01
310.757700	1.319054	dec_ug-prop_pmod_choice	1.319054	25	n/a	17	6.280294e-02
320.799350	1.335709	dec_dg-prop_pmod_choice	1.335709	19	n/a	15	-1.068845e-01
328.839630	1.585582	dec_ug-prop_pmod_choice	1.585582	21	n/a	14	7.613627e-02
336.878600	1.686384	dec_dg-prop_pmod_choice	1.686384	21	n/a	12	1.111606e-01
348.923130	2.636018	dec_ug-resp_pmod_accept	2.636018	21	n/a	14	1.065293e-01
348.923130	2.636018	dec_ug-resp_pmod_option_presented	2.636018	21	n/a	14	1.065293e-01
348.923130	2.636018	dec_ug-resp_pmod_choice	2.636018	21	n/a	14	1.065293e-01
356.961550	1.236759	dec_dg-prop_pmod_choice	1.236759	23	n/a	19	-1.434978e-01
368.002560	2.472171	dec_ug-resp_pmod_reject	2.472171	17	n/a	0	6.731360e-02
368.002560	2.472171	dec_ug-resp_pmod_option_presented	2.472171	17	n/a	0	6.731360e-02
368.002560	2.472171	dec_ug-resp_pmod_choice	2.472171	17	n/a	0	-2.268040e-01
383.050450	1.235642	dec_ug-prop_pmod_choice	1.235642	15	n/a	10	7.613627e-02
