onset	duration	trial_type	response_time	Endowment	Endowment_pmod	Decision	Decision_pmod
4.991920	2	cue_dict_pmod	n/a	21	2	n/a	n/a
14.532910	2	cue_ug-prop_pmod	n/a	15	-3	n/a	n/a
22.589657	2	cue_ug-prop_pmod	n/a	17	-1	n/a	n/a
34.115868	2	cue_dict_pmod	n/a	17	-2	n/a	n/a
49.161728	2	cue_ug-prop_pmod	n/a	19	1	n/a	n/a
57.217987	2	cue_ug-resp_pmod	n/a	19	-1	n/a	n/a
68.744255	2	cue_dict_pmod	n/a	25	6	n/a	n/a
78.285290	2	cue_ug-prop_pmod	n/a	15	-3	n/a	n/a
88.327440	2	cue_ug-resp_pmod	n/a	15	-5	n/a	n/a
97.868324	2	cue_dict_pmod	n/a	15	-4	n/a	n/a
109.911514	2	cue_dict_pmod	n/a	15	-4	n/a	n/a
121.454490	2	cue_ug-prop_pmod	n/a	17	-1	n/a	n/a
133.497500	2	cue_ug-resp_pmod	n/a	19	-1	n/a	n/a
146.541630	2	cue_ug-resp_pmod	n/a	21	2	n/a	n/a
157.584170	2	cue_ug-resp_pmod	n/a	17	-3	n/a	n/a
167.125640	2	cue_ug-prop_pmod	n/a	23	5	n/a	n/a
178.167980	2	cue_ug-prop_pmod	n/a	23	5	n/a	n/a
188.209260	2	cue_dict_pmod	n/a	23	4	n/a	n/a
196.249080	2	cue_ug-resp_pmod	n/a	17	-3	n/a	n/a
211.294820	2	cue_ug-resp_pmod	n/a	23	4	n/a	n/a
221.336300	2	cue_ug-resp_pmod	n/a	19	-1	n/a	n/a
232.879350	2	cue_ug-resp_pmod	n/a	25	6	n/a	n/a
240.936190	2	cue_ug-prop_pmod	n/a	17	-1	n/a	n/a
252.979430	2	cue_ug-prop_pmod	n/a	17	-1	n/a	n/a
261.036470	2	cue_ug-prop_pmod	n/a	15	-3	n/a	n/a
269.076080	2	cue_dict_pmod	n/a	19	0	n/a	n/a
282.620060	2	cue_ug-resp_pmod	n/a	19	-1	n/a	n/a
300.668800	2	cue_ug-prop_pmod	n/a	19	1	n/a	n/a
313.712680	2	cue_ug-prop_pmod	n/a	15	-3	n/a	n/a
324.755580	2	cue_dict_pmod	n/a	23	4	n/a	n/a
332.811430	2	cue_ug-resp_pmod	n/a	23	4	n/a	n/a
340.852170	2	cue_dict_pmod	n/a	19	0	n/a	n/a
352.394230	2	cue_dict_pmod	n/a	19	0	n/a	n/a
360.434630	2	cue_dict_pmod	n/a	15	-4	n/a	n/a
372.477700	2	cue_ug-resp_pmod	n/a	17	-3	n/a	n/a
380.534150	2	cue_dict_pmod	n/a	15	-4	n/a	n/a
9.025906	1.270003	dec_ug-prop_pmod_choice	1.270003	21	n/a	17	-5.567771e-02
17.066435	1.085470	dec_ug-resp_pmod_accept	1.085470	15	n/a	10	9.895903e-02
17.066435	1.085470	dec_ug-resp_pmod_option_presented	1.085470	15	n/a	10	9.895903e-02
17.066435	1.085470	dec_ug-resp_pmod_choice	1.085470	15	n/a	10	9.895903e-02
26.605505	0.970851	dec_ug-resp_pmod_accept	0.970851	17	n/a	12	5.974335e-02
26.605505	0.970851	dec_ug-resp_pmod_option_presented	0.970851	17	n/a	12	5.974335e-02
26.605505	0.970851	dec_ug-resp_pmod_choice	0.970851	17	n/a	12	5.974335e-02
36.649178	1.752947	dec_ug-prop_pmod_choice	1.752947	17	n/a	16	-1.873304e-01
51.695780	1.518381	dec_ug-resp_pmod_accept	1.518381	19	n/a	13	8.141517e-02
51.695780	1.518381	dec_ug-resp_pmod_option_presented	1.518381	19	n/a	13	8.141517e-02
51.695780	1.518381	dec_ug-resp_pmod_choice	1.518381	19	n/a	13	8.141517e-02
61.234753	1.070558	dec_dg-prop_pmod_choice	1.070558	19	n/a	10	2.331279e-01
72.777300	1.237109	dec_ug-prop_pmod_choice	1.237109	25	n/a	20	-4.615390e-02
80.818770	1.869531	dec_ug-resp_pmod_reject	1.869531	15	n/a	0	-3.437430e-02
80.818770	1.869531	dec_ug-resp_pmod_option_presented	1.869531	15	n/a	0	-3.437430e-02
80.818770	1.869531	dec_ug-resp_pmod_choice	1.869531	15	n/a	0	-2.343743e-01
92.360565	1.120059	dec_dg-prop_pmod_choice	1.120059	15	n/a	12	-4.055631e-02
100.401690	0.835351	dec_ug-prop_pmod_choice	0.835351	15	n/a	10	8.717944e-02
113.944620	0.886765	dec_ug-prop_pmod_choice	0.886765	15	n/a	14	-1.794872e-01
123.987100	2.036974	dec_ug-resp_pmod_accept	2.036974	17	n/a	12	5.974335e-02
123.987100	2.036974	dec_ug-resp_pmod_option_presented	2.036974	17	n/a	12	5.974335e-02
123.987100	2.036974	dec_ug-resp_pmod_choice	2.036974	17	n/a	12	5.974335e-02
139.030780	1.988940	dec_dg-prop_pmod_choice	1.988940	19	n/a	15	-3.003000e-02
152.074840	1.205386	dec_dg-prop_pmod_choice	1.205386	21	n/a	17	-5.008012e-02
161.617700	1.803680	dec_dg-prop_pmod_choice	1.803680	17	n/a	16	-1.817328e-01
172.659550	2.521946	dec_ug-resp_pmod_reject	2.521946	23	n/a	0	-1.908960e-01
172.659550	2.521946	dec_ug-resp_pmod_option_presented	2.521946	23	n/a	0	-1.908960e-01
172.659550	2.521946	dec_ug-resp_pmod_choice	2.521946	23	n/a	0	-2.343743e-01
180.701190	1.435829	dec_ug-resp_pmod_accept	1.435829	23	n/a	13	2.004083e-01
180.701190	1.435829	dec_ug-resp_pmod_option_presented	1.435829	23	n/a	13	2.004083e-01
180.701190	1.435829	dec_ug-resp_pmod_choice	1.435829	23	n/a	13	2.004083e-01
190.742610	1.536085	dec_ug-prop_pmod_choice	1.536085	23	n/a	13	1.886287e-01
198.783480	0.600832	dec_dg-prop_pmod_choice	0.600832	17	n/a	14	-6.408573e-02
213.829320	1.451573	dec_dg-prop_pmod_choice	1.451573	23	n/a	19	-6.664327e-02
225.370400	1.253405	dec_dg-prop_pmod_choice	1.253405	19	n/a	15	-3.003000e-02
235.413380	1.351664	dec_dg-prop_pmod_choice	1.351664	25	n/a	17	7.944369e-02
243.470380	2.686317	dec_ug-resp_pmod_reject	2.686317	17	n/a	0	-2.343743e-01
243.470380	2.686317	dec_ug-resp_pmod_option_presented	2.686317	17	n/a	0	-1.755508e-01
243.470380	2.686317	dec_ug-resp_pmod_choice	2.686317	17	n/a	0	-2.343743e-01
255.513400	1.451665	dec_ug-resp_pmod_reject	1.451665	17	n/a	0	-2.343743e-01
255.513400	1.451665	dec_ug-resp_pmod_option_presented	1.451665	17	n/a	0	-1.755508e-01
255.513400	1.451665	dec_ug-resp_pmod_choice	1.451665	17	n/a	0	-2.343743e-01
263.569400	1.269219	dec_ug-resp_pmod_accept	1.269219	15	n/a	12	-3.437430e-02
263.569400	1.269219	dec_ug-resp_pmod_option_presented	1.269219	15	n/a	12	-3.437430e-02
263.569400	1.269219	dec_ug-resp_pmod_choice	1.269219	15	n/a	12	-3.437430e-02
273.109300	0.903254	dec_ug-prop_pmod_choice	0.903254	19	n/a	15	-3.562758e-02
288.153300	1.072536	dec_dg-prop_pmod_choice	1.072536	19	n/a	15	-3.003000e-02
306.202300	2.088805	dec_ug-resp_pmod_accept	2.088805	19	n/a	10	2.393099e-01
306.202300	2.088805	dec_ug-resp_pmod_option_presented	2.088805	19	n/a	10	2.393099e-01
306.202300	2.088805	dec_ug-resp_pmod_choice	2.088805	19	n/a	10	2.393099e-01
319.246830	1.537440	dec_ug-resp_pmod_accept	1.537440	15	n/a	8	2.322924e-01
319.246830	1.537440	dec_ug-resp_pmod_option_presented	1.537440	15	n/a	8	2.322924e-01
319.246830	1.537440	dec_ug-resp_pmod_choice	1.537440	15	n/a	8	2.322924e-01
327.289250	0.917996	dec_ug-prop_pmod_choice	0.917996	23	n/a	16	5.819393e-02
335.329000	1.201627	dec_dg-prop_pmod_choice	1.201627	23	n/a	13	1.942263e-01
344.885650	1.003125	dec_ug-prop_pmod_choice	1.003125	19	n/a	15	-3.562758e-02
354.927430	1.536131	dec_ug-prop_pmod_choice	1.536131	19	n/a	15	-3.562758e-02
362.968140	1.168486	dec_ug-prop_pmod_choice	1.168486	15	n/a	10	8.717944e-02
375.011100	1.168878	dec_dg-prop_pmod_choice	1.168878	17	n/a	12	5.356133e-02
383.068080	1.452046	dec_ug-prop_pmod_choice	1.452046	15	n/a	10	8.717944e-02
