onset	duration	trial_type	response_time	Endowment	Endowment_pmod	Decision	Decision_pmod
5.001158	2	cue_ug-prop_pmod	n/a	17	-4	n/a	n/a
15.050822	2	cue_ug-prop_pmod	n/a	25	4	n/a	n/a
30.100920	2	cue_ug-prop_pmod	n/a	17	-4	n/a	n/a
39.650944	2	cue_dict_pmod	n/a	25	6	n/a	n/a
49.200863	2	cue_ug-prop_pmod	n/a	21	0	n/a	n/a
58.750904	2	cue_dict_pmod	n/a	23	4	n/a	n/a
69.800950	2	cue_dict_pmod	n/a	19	0	n/a	n/a
77.850710	2	cue_ug-resp_pmod	n/a	25	5	n/a	n/a
85.900920	2	cue_ug-resp_pmod	n/a	25	5	n/a	n/a
95.951100	2	cue_dict_pmod	n/a	23	4	n/a	n/a
104.001015	2	cue_ug-resp_pmod	n/a	15	-5	n/a	n/a
119.051020	2	cue_dict_pmod	n/a	15	-4	n/a	n/a
135.601090	2	cue_ug-prop_pmod	n/a	21	0	n/a	n/a
143.650960	2	cue_ug-resp_pmod	n/a	17	-3	n/a	n/a
153.700590	2	cue_dict_pmod	n/a	21	2	n/a	n/a
161.751040	2	cue_dict_pmod	n/a	17	-2	n/a	n/a
169.801160	2	cue_ug-prop_pmod	n/a	25	4	n/a	n/a
179.851120	2	cue_ug-resp_pmod	n/a	23	3	n/a	n/a
189.901120	2	cue_ug-resp_pmod	n/a	19	-1	n/a	n/a
197.951080	2	cue_ug-prop_pmod	n/a	19	-2	n/a	n/a
207.502930	2	cue_ug-resp_pmod	n/a	25	5	n/a	n/a
220.551060	2	cue_ug-resp_pmod	n/a	17	-3	n/a	n/a
232.101290	2	cue_dict_pmod	n/a	17	-2	n/a	n/a
247.151180	2	cue_ug-resp_pmod	n/a	21	1	n/a	n/a
255.201110	2	cue_ug-resp_pmod	n/a	17	-3	n/a	n/a
263.251070	2	cue_ug-prop_pmod	n/a	21	0	n/a	n/a
274.301570	2	cue_ug-resp_pmod	n/a	19	-1	n/a	n/a
285.851170	2	cue_ug-prop_pmod	n/a	17	-4	n/a	n/a
299.403200	2	cue_dict_pmod	n/a	17	-2	n/a	n/a
311.451230	2	cue_ug-prop_pmod	n/a	25	4	n/a	n/a
321.001160	2	cue_ug-resp_pmod	n/a	15	-5	n/a	n/a
332.051270	2	cue_ug-prop_pmod	n/a	23	2	n/a	n/a
347.101170	2	cue_ug-prop_pmod	n/a	25	4	n/a	n/a
359.151500	2	cue_dict_pmod	n/a	23	4	n/a	n/a
369.201200	2	cue_dict_pmod	n/a	15	-4	n/a	n/a
379.251400	2	cue_dict_pmod	n/a	17	-2	n/a	n/a
7.533553	1.333383	dec_ug-resp_pmod_accept	1.333383	17	n/a	9	2.362146e-01
7.533553	1.333383	dec_ug-resp_pmod_option_presented	1.333383	17	n/a	9	2.362146e-01
7.533553	1.333383	dec_ug-resp_pmod_choice	1.333383	17	n/a	9	2.362146e-01
17.583363	0.900141	dec_ug-resp_pmod_reject	0.900141	25	n/a	0	-2.343737e-01
17.583363	0.900141	dec_ug-resp_pmod_option_presented	0.900141	25	n/a	0	-1.543737e-01
17.583363	0.900141	dec_ug-resp_pmod_choice	0.900141	25	n/a	0	-2.343737e-01
34.133490	1.050317	dec_ug-resp_pmod_accept	1.050317	17	n/a	14	-5.790309e-02
34.133490	1.050317	dec_ug-resp_pmod_option_presented	1.050317	17	n/a	14	-5.790309e-02
34.133490	1.050317	dec_ug-resp_pmod_choice	1.050317	17	n/a	14	-5.790309e-02
43.683810	1.616361	dec_ug-prop_pmod_choice	1.616361	25	n/a	23	-6.631669e-02
53.233467	1.317012	dec_ug-resp_pmod_reject	1.317012	21	n/a	0	1.941977e-01
53.233467	1.317012	dec_ug-resp_pmod_option_presented	1.317012	21	n/a	0	1.941977e-01
53.233467	1.317012	dec_ug-resp_pmod_choice	1.317012	21	n/a	0	-2.343737e-01
64.283380	1.416655	dec_ug-prop_pmod_choice	1.416655	23	n/a	13	2.884659e-01
72.333496	1.167181	dec_ug-prop_pmod_choice	1.167181	19	n/a	15	6.420963e-02
80.383484	0.816885	dec_dg-prop_pmod_choice	0.816885	25	n/a	23	-2.547898e-01
88.433846	0.966344	dec_dg-prop_pmod_choice	0.966344	25	n/a	20	-1.347898e-01
98.483440	1.500186	dec_ug-prop_pmod_choice	1.500186	23	n/a	16	1.580311e-01
109.533430	1.250240	dec_dg-prop_pmod_choice	1.250240	15	n/a	12	-1.347898e-01
123.083350	1.050182	dec_ug-prop_pmod_choice	1.050182	15	n/a	12	5.368331e-02
138.133700	2.533312	dec_ug-resp_pmod_accept	2.533312	21	n/a	17	-4.389749e-02
138.133700	2.533312	dec_ug-resp_pmod_option_presented	2.533312	21	n/a	17	-4.389749e-02
138.133700	2.533312	dec_ug-resp_pmod_choice	2.533312	21	n/a	17	-4.389749e-02
146.183380	1.150357	dec_dg-prop_pmod_choice	1.150357	17	n/a	14	-1.583192e-01
156.233900	1.166304	dec_ug-prop_pmod_choice	1.166304	21	n/a	12	2.822547e-01
164.282900	1.000871	dec_ug-prop_pmod_choice	1.000871	17	n/a	9	3.242715e-01
172.333950	1.616182	dec_ug-resp_pmod_accept	1.616182	25	n/a	17	8.562632e-02
172.333950	1.616182	dec_ug-resp_pmod_option_presented	1.616182	25	n/a	17	8.562632e-02
172.333950	1.616182	dec_ug-resp_pmod_choice	1.616182	25	n/a	17	8.562632e-02
182.383620	1.050144	dec_dg-prop_pmod_choice	1.050144	23	n/a	22	-2.913116e-01
192.433670	0.816402	dec_dg-prop_pmod_choice	0.816402	19	n/a	18	-2.821583e-01
201.983150	1.383983	dec_ug-resp_pmod_accept	1.383983	19	n/a	13	8.141579e-02
201.983150	1.383983	dec_ug-resp_pmod_option_presented	1.383983	19	n/a	13	8.141579e-02
201.983150	1.383983	dec_ug-resp_pmod_choice	1.383983	19	n/a	13	8.141579e-02
213.033950	1.316368	dec_dg-prop_pmod_choice	1.316368	25	n/a	23	-2.547898e-01
224.583710	1.166925	dec_dg-prop_pmod_choice	1.166925	17	n/a	14	-1.583192e-01
234.633850	1.533310	dec_ug-prop_pmod_choice	1.533310	17	n/a	9	3.242715e-01
249.683980	1.233107	dec_dg-prop_pmod_choice	1.233107	21	n/a	14	-1.456497e-03
257.735000	1.832213	dec_dg-prop_pmod_choice	1.832213	17	n/a	12	-4.067218e-02
268.783100	2.200484	dec_ug-resp_pmod_accept	2.200484	21	n/a	12	1.941977e-01
268.783100	2.200484	dec_ug-resp_pmod_option_presented	2.200484	21	n/a	12	1.941977e-01
268.783100	2.200484	dec_ug-resp_pmod_choice	2.200484	21	n/a	12	1.941977e-01
278.333980	1.166448	dec_dg-prop_pmod_choice	1.166448	19	n/a	18	-2.821583e-01
289.884060	1.233115	dec_ug-resp_pmod_accept	1.233115	17	n/a	9	2.362146e-01
289.884060	1.233115	dec_ug-resp_pmod_option_presented	1.233115	17	n/a	9	2.362146e-01
289.884060	1.233115	dec_ug-resp_pmod_choice	1.233115	17	n/a	9	2.362146e-01
301.934300	1.033023	dec_ug-prop_pmod_choice	1.033023	17	n/a	14	3.015390e-02
315.483730	1.733444	dec_ug-resp_pmod_reject	1.733444	25	n/a	0	-1.543737e-01
315.483730	1.733444	dec_ug-resp_pmod_option_presented	1.733444	25	n/a	0	-1.543737e-01
315.483730	1.733444	dec_ug-resp_pmod_choice	1.733444	25	n/a	0	-2.343737e-01
326.534060	1.199792	dec_dg-prop_pmod_choice	1.199792	15	n/a	14	-2.681232e-01
337.583620	2.283615	dec_ug-resp_pmod_reject	2.283615	23	n/a	0	-2.343737e-01
337.583620	2.283615	dec_ug-resp_pmod_option_presented	2.283615	23	n/a	0	-1.908954e-01
337.583620	2.283615	dec_ug-resp_pmod_choice	2.283615	23	n/a	0	-2.343737e-01
349.633580	1.750563	dec_ug-resp_pmod_accept	1.750563	25	n/a	14	2.056263e-01
349.633580	1.750563	dec_ug-resp_pmod_option_presented	1.750563	25	n/a	14	2.056263e-01
349.633580	1.750563	dec_ug-resp_pmod_choice	1.750563	25	n/a	14	2.056263e-01
361.683720	1.300317	dec_ug-prop_pmod_choice	1.300317	23	n/a	16	1.580311e-01
371.734130	1.633294	dec_ug-prop_pmod_choice	1.633294	15	n/a	8	3.203500e-01
383.284120	1.549752	dec_ug-prop_pmod_choice	1.549752	17	n/a	9	3.242715e-01
