onset	duration	trial_type	response_time	Endowment	Endowment_pmod	Decision	Decision_pmod
5.002085	2	cue_ug-resp_pmod	n/a	17	-3	n/a	n/a
14.543378	2	cue_ug-resp_pmod	n/a	23	3	n/a	n/a
27.587572	2	cue_ug-prop_pmod	n/a	19	1	n/a	n/a
35.627510	2	cue_ug-prop_pmod	n/a	15	-4	n/a	n/a
49.171997	2	cue_ug-resp_pmod	n/a	17	-3	n/a	n/a
57.212166	2	cue_dict_pmod	n/a	15	-6	n/a	n/a
67.253650	2	cue_dict_pmod	n/a	15	-6	n/a	n/a
82.299310	2	cue_ug-prop_pmod	n/a	19	1	n/a	n/a
91.857185	2	cue_ug-resp_pmod	n/a	19	-1	n/a	n/a
101.381940	2	cue_ug-prop_pmod	n/a	23	5	n/a	n/a
112.424310	2	cue_dict_pmod	n/a	25	4	n/a	n/a
120.481040	2	cue_dict_pmod	n/a	25	4	n/a	n/a
131.523380	2	cue_ug-prop_pmod	n/a	21	3	n/a	n/a
141.064530	2	cue_ug-resp_pmod	n/a	15	-5	n/a	n/a
156.110440	2	cue_dict_pmod	n/a	19	-2	n/a	n/a
168.153640	2	cue_dict_pmod	n/a	25	4	n/a	n/a
178.195430	2	cue_ug-resp_pmod	n/a	17	-3	n/a	n/a
191.739790	2	cue_ug-resp_pmod	n/a	25	5	n/a	n/a
201.781400	2	cue_dict_pmod	n/a	21	0	n/a	n/a
211.823090	2	cue_ug-prop_pmod	n/a	15	-4	n/a	n/a
221.865160	2	cue_ug-resp_pmod	n/a	21	1	n/a	n/a
231.405840	2	cue_dict_pmod	n/a	23	2	n/a	n/a
239.462450	2	cue_dict_pmod	n/a	25	4	n/a	n/a
247.502520	2	cue_dict_pmod	n/a	21	0	n/a	n/a
255.542480	2	cue_ug-prop_pmod	n/a	21	3	n/a	n/a
268.586520	2	cue_ug-prop_pmod	n/a	15	-4	n/a	n/a
278.628330	2	cue_ug-resp_pmod	n/a	23	3	n/a	n/a
286.684940	2	cue_ug-resp_pmod	n/a	17	-3	n/a	n/a
296.209600	2	cue_dict_pmod	n/a	21	0	n/a	n/a
305.750800	2	cue_dict_pmod	n/a	19	-2	n/a	n/a
320.796360	2	cue_ug-prop_pmod	n/a	15	-4	n/a	n/a
328.854700	2	cue_ug-resp_pmod	n/a	23	3	n/a	n/a
336.909800	2	cue_ug-prop_pmod	n/a	19	1	n/a	n/a
348.936370	2	cue_ug-prop_pmod	n/a	15	-4	n/a	n/a
363.982100	2	cue_ug-prop_pmod	n/a	25	7	n/a	n/a
377.026370	2	cue_ug-resp_pmod	n/a	19	-1	n/a	n/a
9.036313	1.169471	dec_dg-prop_pmod_choice	1.169471	17	n/a	14	-9.244082e-02
20.077630	0.887160	dec_dg-prop_pmod_choice	0.887160	23	n/a	16	3.543642e-02
30.120852	1.436036	dec_ug-resp_pmod_accept	1.436036	19	n/a	13	1.330518e-01
30.120852	1.436036	dec_ug-resp_pmod_option_presented	1.436036	19	n/a	13	1.330518e-01
30.120852	1.436036	dec_ug-resp_pmod_choice	1.436036	19	n/a	13	1.330518e-01
39.660748	1.520746	dec_ug-resp_pmod_accept	1.520746	15	n/a	12	1.726236e-02
39.660748	1.520746	dec_ug-resp_pmod_option_presented	1.520746	15	n/a	12	1.726236e-02
39.660748	1.520746	dec_ug-resp_pmod_choice	1.520746	15	n/a	12	1.726236e-02
51.705463	1.486021	dec_dg-prop_pmod_choice	1.486021	17	n/a	12	2.520624e-02
59.745403	1.118809	dec_ug-prop_pmod_choice	1.118809	15	n/a	10	1.511721e-01
69.786830	1.719509	dec_ug-prop_pmod_choice	1.719509	15	n/a	10	1.511721e-01
86.333710	1.435959	dec_ug-resp_pmod_accept	1.435959	19	n/a	18	-1.301061e-01
86.333710	1.435959	dec_ug-resp_pmod_option_presented	1.435959	19	n/a	18	-1.301061e-01
86.333710	1.435959	dec_ug-resp_pmod_choice	1.435959	19	n/a	18	-1.301061e-01
95.874000	0.869978	dec_dg-prop_pmod_choice	0.869978	19	n/a	18	-2.162798e-01
106.915215	1.471667	dec_ug-resp_pmod_accept	1.471667	23	n/a	22	-1.392594e-01
106.915215	1.471667	dec_ug-resp_pmod_option_presented	1.471667	23	n/a	22	-1.392594e-01
106.915215	1.471667	dec_ug-resp_pmod_choice	1.471667	23	n/a	22	-1.392594e-01
114.957664	0.951835	dec_ug-prop_pmod_choice	0.951835	25	n/a	23	-1.021612e-01
126.014404	0.787201	dec_ug-prop_pmod_choice	0.787201	25	n/a	23	-1.021612e-01
135.556800	1.136809	dec_ug-resp_pmod_accept	1.136809	21	n/a	14	1.505957e-01
135.556800	1.136809	dec_ug-resp_pmod_option_presented	1.136809	21	n/a	14	1.505957e-01
135.556800	1.136809	dec_ug-resp_pmod_choice	1.136809	21	n/a	14	1.505957e-01
146.597850	0.904785	dec_dg-prop_pmod_choice	0.904785	15	n/a	14	-2.022447e-01
158.643660	1.035715	dec_ug-prop_pmod_choice	1.035715	19	n/a	15	2.836509e-02
170.687070	1.252474	dec_ug-prop_pmod_choice	1.252474	25	n/a	17	1.378388e-01
182.228780	0.953321	dec_dg-prop_pmod_choice	0.953321	17	n/a	14	-9.244082e-02
194.273150	1.486153	dec_dg-prop_pmod_choice	1.486153	25	n/a	17	5.108859e-02
204.314710	1.302388	dec_ug-prop_pmod_choice	1.302388	21	n/a	14	1.511721e-01
214.356520	1.235814	dec_ug-resp_pmod_accept	1.235814	15	n/a	10	1.505957e-01
214.356520	1.235814	dec_ug-resp_pmod_option_presented	1.235814	15	n/a	10	1.505957e-01
214.356520	1.235814	dec_ug-resp_pmod_choice	1.235814	15	n/a	10	1.505957e-01
225.898040	1.070284	dec_dg-prop_pmod_choice	1.070284	21	n/a	20	-2.212924e-01
233.939150	2.236846	dec_ug-prop_pmod_choice	2.236846	23	n/a	22	-1.386830e-01
241.979230	1.435945	dec_ug-prop_pmod_choice	1.435945	25	n/a	17	1.378388e-01
250.035800	1.786010	dec_ug-prop_pmod_choice	1.786010	21	n/a	12	2.464102e-01
261.076930	1.570709	dec_ug-resp_pmod_accept	1.570709	21	n/a	20	-1.351186e-01
261.076930	1.570709	dec_ug-resp_pmod_option_presented	1.570709	21	n/a	20	-1.351186e-01
261.076930	1.570709	dec_ug-resp_pmod_choice	1.570709	21	n/a	20	-1.351186e-01
271.119960	1.519378	dec_ug-resp_pmod_accept	1.519378	15	n/a	10	1.505957e-01
271.119960	1.519378	dec_ug-resp_pmod_option_presented	1.519378	15	n/a	10	1.505957e-01
271.119960	1.519378	dec_ug-resp_pmod_choice	1.519378	15	n/a	10	1.505957e-01
281.161600	1.335877	dec_dg-prop_pmod_choice	1.335877	23	n/a	16	3.543642e-02
290.701750	1.620526	dec_dg-prop_pmod_choice	1.620526	17	n/a	16	-2.100879e-01
300.242860	1.920942	dec_ug-prop_pmod_choice	1.920942	21	n/a	12	2.464102e-01
308.283940	1.770039	dec_ug-prop_pmod_choice	1.770039	19	n/a	13	1.336283e-01
323.329960	1.969523	dec_ug-resp_pmod_reject	1.969523	15	n/a	0	-1.160710e-01
323.329960	1.969523	dec_ug-resp_pmod_option_presented	1.969523	15	n/a	0	-1.160710e-01
323.329960	1.969523	dec_ug-resp_pmod_choice	1.969523	15	n/a	0	-1.827376e-01
331.386900	2.419278	dec_dg-prop_pmod_choice	2.419278	23	n/a	19	-9.499837e-02
339.426970	1.602159	dec_ug-resp_pmod_reject	1.602159	19	n/a	0	-1.827376e-01
339.426970	1.602159	dec_ug-resp_pmod_option_presented	1.602159	19	n/a	0	-1.301061e-01
339.426970	1.602159	dec_ug-resp_pmod_choice	1.602159	19	n/a	0	-1.827376e-01
351.470250	1.151841	dec_ug-resp_pmod_accept	1.151841	15	n/a	10	1.505957e-01
351.470250	1.151841	dec_ug-resp_pmod_option_presented	1.151841	15	n/a	10	1.505957e-01
351.470250	1.151841	dec_ug-resp_pmod_choice	1.151841	15	n/a	10	1.505957e-01
369.515470	1.371622	dec_ug-resp_pmod_accept	1.371622	25	n/a	20	1.726236e-02
369.515470	1.371622	dec_ug-resp_pmod_option_presented	1.371622	25	n/a	20	1.726236e-02
369.515470	1.371622	dec_ug-resp_pmod_choice	1.371622	25	n/a	20	1.726236e-02
381.059970	1.186429	dec_dg-prop_pmod_choice	1.186429	19	n/a	15	-5.838509e-02
