onset	duration	trial_type	response_time	Endowment	Endowment_pmod	Decision	Decision_pmod
4.997308	2	cue_ug-resp_pmod	n/a	23	3	n/a	n/a
17.047600	2	cue_dict_pmod	n/a	23	4	n/a	n/a
29.097479	2	cue_ug-resp_pmod	n/a	25	5	n/a	n/a
38.647340	2	cue_ug-resp_pmod	n/a	23	3	n/a	n/a
46.697390	2	cue_dict_pmod	n/a	17	-2	n/a	n/a
56.747110	2	cue_ug-prop_pmod	n/a	19	-3	n/a	n/a
64.797226	2	cue_dict_pmod	n/a	19	0	n/a	n/a
72.847190	2	cue_dict_pmod	n/a	21	2	n/a	n/a
83.897050	2	cue_ug-resp_pmod	n/a	23	3	n/a	n/a
93.446945	2	cue_ug-resp_pmod	n/a	25	5	n/a	n/a
102.997060	2	cue_ug-prop_pmod	n/a	25	4	n/a	n/a
113.046960	2	cue_ug-resp_pmod	n/a	17	-3	n/a	n/a
128.096900	2	cue_dict_pmod	n/a	17	-2	n/a	n/a
137.646710	2	cue_ug-prop_pmod	n/a	23	2	n/a	n/a
148.713330	2	cue_ug-resp_pmod	n/a	21	1	n/a	n/a
158.263700	2	cue_dict_pmod	n/a	15	-4	n/a	n/a
170.313610	2	cue_dict_pmod	n/a	25	6	n/a	n/a
178.363400	2	cue_ug-prop_pmod	n/a	19	-3	n/a	n/a
191.913300	2	cue_ug-prop_pmod	n/a	17	-5	n/a	n/a
206.963120	2	cue_ug-resp_pmod	n/a	15	-5	n/a	n/a
215.013440	2	cue_ug-prop_pmod	n/a	23	2	n/a	n/a
226.063130	2	cue_ug-resp_pmod	n/a	15	-5	n/a	n/a
237.613070	2	cue_dict_pmod	n/a	23	4	n/a	n/a
247.163150	2	cue_ug-prop_pmod	n/a	23	2	n/a	n/a
255.212940	2	cue_dict_pmod	n/a	19	0	n/a	n/a
270.263060	2	cue_dict_pmod	n/a	15	-4	n/a	n/a
280.312800	2	cue_ug-prop_pmod	n/a	23	2	n/a	n/a
288.362820	2	cue_ug-prop_pmod	n/a	23	2	n/a	n/a
297.912780	2	cue_ug-prop_pmod	n/a	19	-3	n/a	n/a
307.962650	2	cue_ug-resp_pmod	n/a	15	-5	n/a	n/a
318.012730	2	cue_ug-resp_pmod	n/a	25	5	n/a	n/a
331.062600	2	cue_ug-prop_pmod	n/a	25	4	n/a	n/a
344.112670	2	cue_dict_pmod	n/a	19	0	n/a	n/a
357.162450	2	cue_ug-resp_pmod	n/a	17	-3	n/a	n/a
366.712400	2	cue_ug-prop_pmod	n/a	19	-3	n/a	n/a
376.762480	2	cue_dict_pmod	n/a	19	0	n/a	n/a
7.530796	0.849316	dec_dg-prop_pmod_choice	0.849316	23	n/a	22	-3.212330e-01
19.579687	1.233422	dec_ug-prop_pmod_choice	1.233422	23	n/a	13	3.092713e-01
33.129627	1.399984	dec_dg-prop_pmod_choice	1.399984	25	n/a	20	-1.647113e-01
41.180120	0.916661	dec_dg-prop_pmod_choice	0.916661	23	n/a	19	-1.907983e-01
49.229687	1.867019	dec_ug-prop_pmod_choice	1.867019	17	n/a	14	5.095928e-02
59.280020	2.599895	dec_ug-resp_pmod_reject	2.599895	19	n/a	0	-1.712336e-01
59.280020	2.599895	dec_ug-resp_pmod_option_presented	2.599895	19	n/a	0	-1.712336e-01
59.280020	2.599895	dec_ug-resp_pmod_choice	2.599895	19	n/a	0	-2.238652e-01
67.329475	0.916491	dec_ug-prop_pmod_choice	0.916491	19	n/a	10	3.481729e-01
78.379640	2.450185	dec_ug-prop_pmod_choice	2.450185	21	n/a	12	3.030601e-01
87.929360	1.000360	dec_dg-prop_pmod_choice	1.000360	23	n/a	22	-3.212330e-01
97.479250	2.417006	dec_dg-prop_pmod_choice	2.417006	25	n/a	23	-2.847113e-01
105.529335	1.383737	dec_ug-resp_pmod_accept	1.383737	25	n/a	17	9.613480e-02
105.529335	1.383737	dec_ug-resp_pmod_option_presented	1.383737	25	n/a	17	9.613480e-02
105.529335	1.383737	dec_ug-resp_pmod_choice	1.383737	25	n/a	17	9.613480e-02
115.579530	2.050163	dec_dg-prop_pmod_choice	2.050163	17	n/a	16	-3.058878e-01
132.130170	1.182753	dec_ug-prop_pmod_choice	1.182753	17	n/a	12	1.686063e-01
143.180160	4.000000	missed_trial	n/a	23	n/a	n/a	n/a
152.745640	1.083837	dec_dg-prop_pmod_choice	1.083837	21	n/a	20	-3.170923e-01
160.795790	1.250251	dec_ug-prop_pmod_choice	1.250251	15	n/a	10	2.078220e-01
172.845830	1.500311	dec_ug-prop_pmod_choice	1.500311	25	n/a	14	3.144887e-01
182.395600	2.217057	dec_ug-resp_pmod_accept	2.217057	19	n/a	10	2.498190e-01
182.395600	2.217057	dec_ug-resp_pmod_option_presented	2.217057	19	n/a	10	2.498190e-01
182.395600	2.217057	dec_ug-resp_pmod_choice	2.217057	19	n/a	10	2.498190e-01
194.445630	1.183750	dec_ug-resp_pmod_reject	1.183750	17	n/a	0	-1.650417e-01
194.445630	1.183750	dec_ug-resp_pmod_option_presented	1.183750	17	n/a	0	-1.650417e-01
194.445630	1.183750	dec_ug-resp_pmod_choice	1.183750	17	n/a	0	-2.238652e-01
209.495600	1.783345	dec_dg-prop_pmod_choice	1.783345	15	n/a	10	-3.137798e-02
220.545580	1.366732	dec_ug-resp_pmod_accept	1.366732	23	n/a	13	2.109174e-01
220.545580	1.366732	dec_ug-resp_pmod_option_presented	1.366732	23	n/a	13	2.109174e-01
220.545580	1.366732	dec_ug-resp_pmod_choice	1.366732	23	n/a	13	2.109174e-01
230.095280	1.467111	dec_dg-prop_pmod_choice	1.467111	15	n/a	14	-2.980446e-01
241.645400	2.383685	dec_ug-prop_pmod_choice	2.383685	23	n/a	16	1.788365e-01
249.695360	2.717036	dec_ug-resp_pmod_reject	2.717036	23	n/a	0	-2.238652e-01
249.695360	2.717036	dec_ug-resp_pmod_option_presented	2.717036	23	n/a	0	-4.995215e-02
249.695360	2.717036	dec_ug-resp_pmod_choice	2.717036	23	n/a	0	-2.238652e-01
257.745570	1.866784	dec_ug-prop_pmod_choice	1.866784	19	n/a	10	3.481729e-01
272.795400	1.566783	dec_ug-prop_pmod_choice	1.566783	15	n/a	10	2.078220e-01
282.845000	2.033876	dec_ug-resp_pmod_accept	2.033876	23	n/a	19	-4.995215e-02
282.845000	2.033876	dec_ug-resp_pmod_option_presented	2.033876	23	n/a	19	-4.995215e-02
282.845000	2.033876	dec_ug-resp_pmod_choice	2.033876	23	n/a	19	-4.995215e-02
292.395260	1.466976	dec_ug-resp_pmod_accept	1.466976	23	n/a	16	8.048263e-02
292.395260	1.466976	dec_ug-resp_pmod_option_presented	1.466976	23	n/a	16	8.048263e-02
292.395260	1.466976	dec_ug-resp_pmod_choice	1.466976	23	n/a	16	8.048263e-02
300.445100	1.866806	dec_ug-resp_pmod_reject	1.866806	19	n/a	0	-2.238652e-01
300.445100	1.866806	dec_ug-resp_pmod_option_presented	1.866806	19	n/a	0	-1.333888e-02
300.445100	1.866806	dec_ug-resp_pmod_choice	1.866806	19	n/a	0	-2.238652e-01
310.495330	0.849912	dec_dg-prop_pmod_choice	0.849912	15	n/a	12	-1.647113e-01
323.545260	2.000082	dec_dg-prop_pmod_choice	2.000082	25	n/a	20	-1.647113e-01
336.594970	1.633615	dec_ug-resp_pmod_accept	1.633615	25	n/a	14	2.161348e-01
336.594970	1.633615	dec_ug-resp_pmod_option_presented	1.633615	25	n/a	14	2.161348e-01
336.594970	1.633615	dec_ug-resp_pmod_choice	1.633615	25	n/a	14	2.161348e-01
349.645050	1.933592	dec_ug-prop_pmod_choice	1.933592	19	n/a	15	8.501501e-02
361.194850	1.500280	dec_dg-prop_pmod_choice	1.500280	17	n/a	16	-3.058878e-01
369.245270	1.699949	dec_ug-resp_pmod_accept	1.699949	19	n/a	13	9.192428e-02
369.245270	1.699949	dec_ug-resp_pmod_option_presented	1.699949	19	n/a	13	9.192428e-02
369.245270	1.699949	dec_ug-resp_pmod_choice	1.699949	19	n/a	13	9.192428e-02
379.294860	2.366833	dec_ug-prop_pmod_choice	2.366833	19	n/a	10	3.481729e-01
