onset	duration	trial_type	response_time	Endowment	Endowment_pmod	Decision	Decision_pmod
5.005118	2	cue_ug-resp_pmod	n/a	17	-3	n/a	n/a
14.530029	2	cue_ug-prop_pmod	n/a	15	-5	n/a	n/a
24.571566	2	cue_dict_pmod	n/a	21	1	n/a	n/a
38.115807	2	cue_dict_pmod	n/a	17	-3	n/a	n/a
46.172280	2	cue_ug-resp_pmod	n/a	25	5	n/a	n/a
56.197320	2	cue_dict_pmod	n/a	21	1	n/a	n/a
68.240380	2	cue_dict_pmod	n/a	19	-1	n/a	n/a
81.785260	2	cue_dict_pmod	n/a	23	3	n/a	n/a
94.829190	2	cue_ug-prop_pmod	n/a	21	1	n/a	n/a
107.873500	2	cue_dict_pmod	n/a	23	3	n/a	n/a
117.414380	2	cue_ug-prop_pmod	n/a	21	1	n/a	n/a
126.955536	2	cue_ug-resp_pmod	n/a	15	-5	n/a	n/a
137.998000	2	cue_ug-resp_pmod	n/a	23	3	n/a	n/a
148.039540	2	cue_ug-resp_pmod	n/a	19	-1	n/a	n/a
156.079600	2	cue_ug-resp_pmod	n/a	25	5	n/a	n/a
168.122920	2	cue_ug-resp_pmod	n/a	19	-1	n/a	n/a
176.179350	2	cue_ug-resp_pmod	n/a	23	3	n/a	n/a
186.204390	2	cue_ug-prop_pmod	n/a	17	-3	n/a	n/a
194.244320	2	cue_ug-prop_pmod	n/a	25	5	n/a	n/a
210.791350	2	cue_ug-prop_pmod	n/a	17	-3	n/a	n/a
218.831910	2	cue_dict_pmod	n/a	23	3	n/a	n/a
226.887770	2	cue_ug-prop_pmod	n/a	21	1	n/a	n/a
241.916580	2	cue_ug-resp_pmod	n/a	17	-3	n/a	n/a
251.958540	2	cue_dict_pmod	n/a	15	-5	n/a	n/a
259.998400	2	cue_ug-prop_pmod	n/a	23	3	n/a	n/a
271.040800	2	cue_dict_pmod	n/a	19	-1	n/a	n/a
280.582340	2	cue_ug-resp_pmod	n/a	23	3	n/a	n/a
295.628050	2	cue_ug-prop_pmod	n/a	17	-3	n/a	n/a
303.684400	2	cue_dict_pmod	n/a	21	1	n/a	n/a
313.225680	2	cue_dict_pmod	n/a	25	5	n/a	n/a
324.768340	2	cue_ug-prop_pmod	n/a	23	3	n/a	n/a
332.825260	2	cue_ug-resp_pmod	n/a	17	-3	n/a	n/a
345.852480	2	cue_ug-resp_pmod	n/a	21	1	n/a	n/a
355.393800	2	cue_ug-prop_pmod	n/a	19	-1	n/a	n/a
365.435300	2	cue_ug-prop_pmod	n/a	21	1	n/a	n/a
373.474370	2	cue_dict_pmod	n/a	17	-3	n/a	n/a
9.021721	0.920510	dec_dg-prop_pmod_choice	0.920510	17	n/a	16	-2.902348e-01
17.062723	2.086911	dec_ug-resp_pmod_accept	2.086911	15	n/a	12	-3.609946e-02
17.062723	2.086911	dec_ug-resp_pmod_option_presented	2.086911	15	n/a	12	-3.609946e-02
17.062723	2.086911	dec_ug-resp_pmod_choice	2.086911	15	n/a	12	-3.609946e-02
28.605341	1.336448	dec_ug-prop_pmod_choice	1.336448	21	n/a	17	-1.994955e-02
40.649630	2.536246	dec_ug-prop_pmod_choice	2.536246	17	n/a	14	-3.395516e-02
48.689600	1.151979	dec_dg-prop_pmod_choice	1.151979	25	n/a	23	-2.690583e-01
58.730583	1.586234	dec_ug-prop_pmod_choice	1.586234	21	n/a	14	1.229076e-01
72.273560	0.936659	dec_ug-prop_pmod_choice	0.936659	19	n/a	13	1.053637e-01
87.318550	1.288075	dec_ug-prop_pmod_choice	1.288075	23	n/a	13	2.243569e-01
100.362540	1.855331	dec_ug-resp_pmod_accept	1.855331	21	n/a	12	1.924720e-01
100.362540	1.855331	dec_ug-resp_pmod_option_presented	1.855331	21	n/a	12	1.924720e-01
100.362540	1.855331	dec_ug-resp_pmod_choice	1.855331	21	n/a	12	1.924720e-01
111.907120	1.220528	dec_ug-prop_pmod_choice	1.220528	23	n/a	13	2.243569e-01
121.447876	1.520628	dec_ug-resp_pmod_reject	1.520628	21	n/a	0	-2.360995e-01
121.447876	1.520628	dec_ug-resp_pmod_option_presented	1.520628	21	n/a	0	-4.562327e-02
121.447876	1.520628	dec_ug-resp_pmod_choice	1.520628	21	n/a	0	-2.360995e-01
132.488330	2.673313	dec_dg-prop_pmod_choice	2.673313	15	n/a	8	1.176083e-01
140.530500	1.303367	dec_dg-prop_pmod_choice	1.303367	23	n/a	16	-4.471050e-02
150.573400	1.085116	dec_dg-prop_pmod_choice	1.085116	19	n/a	15	-1.385320e-01
158.613020	2.403434	dec_dg-prop_pmod_choice	2.403434	25	n/a	20	-1.490583e-01
170.657440	0.851119	dec_dg-prop_pmod_choice	0.851119	19	n/a	18	-2.964267e-01
178.696330	1.969416	dec_dg-prop_pmod_choice	1.969416	23	n/a	19	-1.751453e-01
188.737380	1.536365	dec_ug-resp_pmod_reject	1.536365	17	n/a	0	-1.772759e-01
188.737380	1.536365	dec_ug-resp_pmod_option_presented	1.536365	17	n/a	0	-1.772759e-01
188.737380	1.536365	dec_ug-resp_pmod_choice	1.536365	17	n/a	0	-2.360995e-01
198.277740	1.604110	dec_ug-resp_pmod_accept	1.604110	25	n/a	17	8.390054e-02
198.277740	1.604110	dec_ug-resp_pmod_option_presented	1.604110	25	n/a	17	8.390054e-02
198.277740	1.604110	dec_ug-resp_pmod_choice	1.604110	25	n/a	17	8.390054e-02
213.324330	1.319168	dec_ug-resp_pmod_accept	1.319168	17	n/a	9	2.344888e-01
213.324330	1.319168	dec_ug-resp_pmod_option_presented	1.319168	17	n/a	9	2.344888e-01
213.324330	1.319168	dec_ug-resp_pmod_choice	1.319168	17	n/a	9	2.344888e-01
221.365340	1.002494	dec_ug-prop_pmod_choice	1.002494	23	n/a	13	2.243569e-01
232.404070	1.972546	dec_ug-resp_pmod_reject	1.972546	21	n/a	0	-2.360995e-01
232.404070	1.972546	dec_ug-resp_pmod_option_presented	1.972546	21	n/a	0	-4.562327e-02
232.404070	1.972546	dec_ug-resp_pmod_choice	1.972546	21	n/a	0	-2.360995e-01
244.451110	1.468467	dec_dg-prop_pmod_choice	1.468467	17	n/a	14	-1.725877e-01
254.492190	1.669321	dec_ug-prop_pmod_choice	1.669321	15	n/a	10	1.229076e-01
265.531950	2.922965	dec_ug-resp_pmod_reject	2.922965	23	n/a	0	-2.360995e-01
265.531950	2.922965	dec_ug-resp_pmod_option_presented	2.922965	23	n/a	0	-6.218641e-02
265.531950	2.922965	dec_ug-resp_pmod_choice	2.922965	23	n/a	0	-2.360995e-01
275.073820	1.420819	dec_ug-prop_pmod_choice	1.420819	19	n/a	13	1.053637e-01
283.116120	2.019119	dec_dg-prop_pmod_choice	2.019119	23	n/a	13	8.572429e-02
298.162170	1.751844	dec_ug-resp_pmod_accept	1.751844	17	n/a	9	2.344888e-01
298.162170	1.751844	dec_ug-resp_pmod_option_presented	1.751844	17	n/a	9	2.344888e-01
298.162170	1.751844	dec_ug-resp_pmod_choice	1.751844	17	n/a	9	2.344888e-01
307.717100	1.387600	dec_ug-prop_pmod_choice	1.387600	21	n/a	12	2.181457e-01
317.259520	2.003591	dec_ug-prop_pmod_choice	2.003591	25	n/a	17	1.095743e-01
327.302120	2.736574	dec_ug-resp_pmod_accept	2.736574	23	n/a	16	6.824837e-02
327.302120	2.736574	dec_ug-resp_pmod_option_presented	2.736574	23	n/a	16	6.824837e-02
327.302120	2.736574	dec_ug-resp_pmod_choice	2.736574	23	n/a	16	6.824837e-02
338.342000	1.905047	dec_dg-prop_pmod_choice	1.905047	17	n/a	14	-1.725877e-01
349.885960	1.019872	dec_dg-prop_pmod_choice	1.019872	21	n/a	17	-1.585821e-01
357.927000	2.353482	dec_ug-resp_pmod_accept	2.353482	19	n/a	15	-2.557314e-02
357.927000	2.353482	dec_ug-resp_pmod_option_presented	2.353482	19	n/a	15	-2.557314e-02
357.927000	2.353482	dec_ug-resp_pmod_choice	2.353482	19	n/a	15	-2.557314e-02
367.969020	1.969231	dec_ug-resp_pmod_accept	1.969231	21	n/a	12	1.924720e-01
367.969020	1.969231	dec_ug-resp_pmod_option_presented	1.969231	21	n/a	12	1.924720e-01
367.969020	1.969231	dec_ug-resp_pmod_choice	1.969231	21	n/a	12	1.924720e-01
376.009200	2.403052	dec_ug-prop_pmod_choice	2.403052	17	n/a	9	2.601625e-01
