onset	duration	trial_type	response_time	Endowment	Endowment_pmod	Decision	Decision_pmod
5.001169	2	cue_ug-prop_pmod	n/a	23	5	n/a	n/a
16.543676	2	cue_ug-resp_pmod	n/a	15	-6	n/a	n/a
24.600573	2	cue_ug-resp_pmod	n/a	25	5	n/a	n/a
34.125248	2	cue_dict_pmod	n/a	21	1	n/a	n/a
46.168118	2	cue_ug-resp_pmod	n/a	17	-4	n/a	n/a
54.208290	2	cue_ug-resp_pmod	n/a	19	-2	n/a	n/a
62.248352	2	cue_ug-resp_pmod	n/a	25	5	n/a	n/a
71.789560	2	cue_ug-prop_pmod	n/a	21	3	n/a	n/a
83.832695	2	cue_ug-resp_pmod	n/a	21	1	n/a	n/a
93.874560	2	cue_dict_pmod	n/a	23	3	n/a	n/a
105.917560	2	cue_ug-resp_pmod	n/a	21	1	n/a	n/a
116.959750	2	cue_ug-resp_pmod	n/a	21	1	n/a	n/a
126.501170	2	cue_ug-prop_pmod	n/a	21	3	n/a	n/a
138.043850	2	cue_ug-prop_pmod	n/a	23	5	n/a	n/a
146.083530	2	cue_dict_pmod	n/a	23	3	n/a	n/a
155.625090	2	cue_dict_pmod	n/a	21	1	n/a	n/a
163.664960	2	cue_dict_pmod	n/a	17	-3	n/a	n/a
174.707200	2	cue_ug-prop_pmod	n/a	19	1	n/a	n/a
182.747470	2	cue_ug-resp_pmod	n/a	21	1	n/a	n/a
190.787310	2	cue_ug-prop_pmod	n/a	15	-3	n/a	n/a
200.829060	2	cue_dict_pmod	n/a	17	-3	n/a	n/a
212.371690	2	cue_ug-prop_pmod	n/a	21	3	n/a	n/a
222.413280	2	cue_ug-prop_pmod	n/a	15	-3	n/a	n/a
234.456650	2	cue_dict_pmod	n/a	21	1	n/a	n/a
247.500520	2	cue_dict_pmod	n/a	19	-1	n/a	n/a
257.542300	2	cue_dict_pmod	n/a	17	-3	n/a	n/a
267.083400	2	cue_dict_pmod	n/a	19	-1	n/a	n/a
282.129120	2	cue_ug-prop_pmod	n/a	15	-3	n/a	n/a
290.169160	2	cue_ug-resp_pmod	n/a	15	-6	n/a	n/a
299.710050	2	cue_ug-prop_pmod	n/a	15	-3	n/a	n/a
310.752840	2	cue_ug-prop_pmod	n/a	17	-1	n/a	n/a
325.798550	2	cue_dict_pmod	n/a	23	3	n/a	n/a
335.839940	2	cue_ug-prop_pmod	n/a	15	-3	n/a	n/a
343.896550	2	cue_ug-resp_pmod	n/a	25	5	n/a	n/a
361.928000	2	cue_ug-resp_pmod	n/a	21	1	n/a	n/a
371.969880	2	cue_dict_pmod	n/a	23	3	n/a	n/a
9.034451	2.070962	dec_ug-resp_pmod_reject	2.070962	23	n/a	0	-7.377320e-02
9.034451	2.070962	dec_ug-resp_pmod_option_presented	2.070962	23	n/a	0	-7.377320e-02
9.034451	2.070962	dec_ug-resp_pmod_choice	2.070962	23	n/a	0	-1.172515e-01
19.078081	1.635340	dec_dg-prop_pmod_choice	1.635340	15	n/a	10	-3.043521e-02
28.616638	1.404347	dec_dg-prop_pmod_choice	1.404347	25	n/a	14	7.623146e-02
36.658610	1.285725	dec_ug-prop_pmod_choice	1.285725	21	n/a	14	-8.244140e-03
48.701233	1.152582	dec_dg-prop_pmod_choice	1.152582	17	n/a	12	-6.965090e-02
56.741592	1.035632	dec_dg-prop_pmod_choice	1.035632	19	n/a	15	-1.532422e-01
66.281610	1.186679	dec_dg-prop_pmod_choice	1.186679	25	n/a	17	-4.376854e-02
74.323430	2.085850	dec_ug-resp_pmod_reject	2.085850	21	n/a	0	2.160819e-01
74.323430	2.085850	dec_ug-resp_pmod_option_presented	2.085850	21	n/a	0	2.160819e-01
74.323430	2.085850	dec_ug-resp_pmod_choice	2.085850	21	n/a	0	-1.172515e-01
86.365760	1.319280	dec_dg-prop_pmod_choice	1.319280	21	n/a	14	-3.043521e-02
96.408190	1.235167	dec_ug-prop_pmod_choice	1.235167	23	n/a	19	-1.676644e-01
111.451260	1.187598	dec_dg-prop_pmod_choice	1.187598	21	n/a	12	6.480289e-02
120.993310	1.086630	dec_dg-prop_pmod_choice	1.086630	21	n/a	17	-1.732924e-01
130.534360	2.487925	dec_ug-resp_pmod_reject	2.487925	21	n/a	0	7.322473e-02
130.534360	2.487925	dec_ug-resp_pmod_option_presented	2.487925	21	n/a	0	7.322473e-02
130.534360	2.487925	dec_ug-resp_pmod_choice	2.487925	21	n/a	0	-1.172515e-01
140.577270	1.235733	dec_ug-resp_pmod_reject	1.235733	23	n/a	0	-1.172515e-01
140.577270	1.235733	dec_ug-resp_pmod_option_presented	1.235733	23	n/a	0	-7.377320e-02
140.577270	1.235733	dec_ug-resp_pmod_choice	1.235733	23	n/a	0	-1.172515e-01
150.117000	1.670774	dec_ug-prop_pmod_choice	1.670774	23	n/a	16	-3.722965e-02
158.157380	1.336622	dec_ug-prop_pmod_choice	1.336622	21	n/a	12	8.699396e-02
169.198360	1.288104	dec_ug-prop_pmod_choice	1.288104	17	n/a	9	1.290108e-01
177.241490	1.802163	dec_ug-resp_pmod_accept	1.802163	19	n/a	10	3.564327e-01
177.241490	1.802163	dec_ug-resp_pmod_option_presented	1.802163	19	n/a	10	3.564327e-01
177.241490	1.802163	dec_ug-resp_pmod_choice	1.802163	19	n/a	10	3.564327e-01
185.280490	1.669882	dec_dg-prop_pmod_choice	1.669882	21	n/a	12	6.480289e-02
193.320370	2.387205	dec_ug-resp_pmod_accept	2.387205	15	n/a	8	3.494152e-01
193.320370	2.387205	dec_ug-resp_pmod_option_presented	2.387205	15	n/a	8	3.494152e-01
193.320370	2.387205	dec_ug-resp_pmod_choice	2.387205	15	n/a	8	3.494152e-01
204.862900	1.236316	dec_ug-prop_pmod_choice	1.236316	17	n/a	14	-1.651069e-01
214.904310	1.387013	dec_ug-resp_pmod_reject	1.387013	21	n/a	0	-6.963241e-02
214.904310	1.387013	dec_ug-resp_pmod_option_presented	1.387013	21	n/a	0	-6.963241e-02
214.904310	1.387013	dec_ug-resp_pmod_choice	1.387013	21	n/a	0	-1.172515e-01
224.945720	2.237632	dec_ug-resp_pmod_reject	2.237632	15	n/a	0	2.160819e-01
224.945720	2.237632	dec_ug-resp_pmod_option_presented	2.237632	15	n/a	0	2.160819e-01
224.945720	2.237632	dec_ug-resp_pmod_choice	2.237632	15	n/a	0	-1.172515e-01
239.990130	1.254860	dec_ug-prop_pmod_choice	1.254860	21	n/a	17	-1.511013e-01
250.034200	1.052301	dec_ug-prop_pmod_choice	1.052301	19	n/a	10	1.321067e-01
261.575160	1.120559	dec_ug-prop_pmod_choice	1.120559	17	n/a	9	1.290108e-01
269.617370	1.385359	dec_ug-prop_pmod_choice	1.385359	19	n/a	10	1.321067e-01
284.663180	2.270045	dec_ug-resp_pmod_accept	2.270045	15	n/a	8	3.494152e-01
284.663180	2.270045	dec_ug-resp_pmod_option_presented	2.270045	15	n/a	8	3.494152e-01
284.663180	2.270045	dec_ug-resp_pmod_choice	2.270045	15	n/a	8	3.494152e-01
294.202120	1.004255	dec_dg-prop_pmod_choice	1.004255	15	n/a	8	1.028981e-01
305.244140	1.871607	dec_ug-resp_pmod_reject	1.871607	15	n/a	0	8.274854e-02
305.244140	1.871607	dec_ug-resp_pmod_option_presented	1.871607	15	n/a	0	8.274854e-02
305.244140	1.871607	dec_ug-resp_pmod_choice	1.871607	15	n/a	0	-1.172515e-01
316.286040	1.821990	dec_ug-resp_pmod_reject	1.821990	17	n/a	0	-5.842793e-02
316.286040	1.821990	dec_ug-resp_pmod_option_presented	1.821990	17	n/a	0	-5.842793e-02
316.286040	1.821990	dec_ug-resp_pmod_choice	1.821990	17	n/a	0	-1.172515e-01
328.331670	1.202702	dec_ug-prop_pmod_choice	1.202702	23	n/a	13	9.320514e-02
338.374080	1.251078	dec_ug-resp_pmod_reject	1.251078	15	n/a	0	-1.172515e-01
338.374080	1.251078	dec_ug-resp_pmod_option_presented	1.251078	15	n/a	0	-5.058480e-02
338.374080	1.251078	dec_ug-resp_pmod_choice	1.251078	15	n/a	0	-1.172515e-01
349.413400	1.338443	dec_dg-prop_pmod_choice	1.338443	25	n/a	17	-4.376854e-02
364.462000	0.884937	dec_dg-prop_pmod_choice	0.884937	21	n/a	14	-3.043521e-02
376.003300	1.537105	dec_ug-prop_pmod_choice	1.537105	23	n/a	13	9.320514e-02
