onset	duration	trial_type	response_time	Endowment	Endowment_pmod	Decision	Decision_pmod
4.990068	2	cue_dict_pmod	n/a	15	-5	n/a	n/a
15.031692	2	cue_dict_pmod	n/a	19	-1	n/a	n/a
28.075584	2	cue_dict_pmod	n/a	25	5	n/a	n/a
39.117798	2	cue_ug-resp_pmod	n/a	17	-2	n/a	n/a
52.662290	2	cue_dict_pmod	n/a	15	-5	n/a	n/a
60.702446	2	cue_ug-resp_pmod	n/a	15	-4	n/a	n/a
71.744700	2	cue_ug-resp_pmod	n/a	17	-2	n/a	n/a
79.784390	2	cue_ug-resp_pmod	n/a	19	0	n/a	n/a
87.825110	2	cue_ug-resp_pmod	n/a	23	4	n/a	n/a
95.881320	2	cue_ug-resp_pmod	n/a	25	6	n/a	n/a
105.422420	2	cue_ug-prop_pmod	n/a	21	1	n/a	n/a
115.464080	2	cue_ug-resp_pmod	n/a	15	-4	n/a	n/a
123.504150	2	cue_ug-prop_pmod	n/a	21	1	n/a	n/a
131.561000	2	cue_ug-prop_pmod	n/a	21	1	n/a	n/a
149.592030	2	cue_ug-resp_pmod	n/a	15	-4	n/a	n/a
157.648680	2	cue_ug-resp_pmod	n/a	15	-4	n/a	n/a
169.675430	2	cue_dict_pmod	n/a	23	3	n/a	n/a
181.218200	2	cue_ug-resp_pmod	n/a	25	6	n/a	n/a
190.759460	2	cue_dict_pmod	n/a	23	3	n/a	n/a
200.800960	2	cue_dict_pmod	n/a	21	1	n/a	n/a
213.845280	2	cue_ug-prop_pmod	n/a	17	-4	n/a	n/a
225.388140	2	cue_dict_pmod	n/a	19	-1	n/a	n/a
237.431610	2	cue_dict_pmod	n/a	17	-3	n/a	n/a
247.472850	2	cue_ug-resp_pmod	n/a	19	0	n/a	n/a
262.518740	2	cue_ug-prop_pmod	n/a	21	1	n/a	n/a
270.558780	2	cue_dict_pmod	n/a	23	3	n/a	n/a
280.099730	2	cue_ug-prop_pmod	n/a	21	1	n/a	n/a
289.641080	2	cue_dict_pmod	n/a	21	1	n/a	n/a
297.680730	2	cue_ug-prop_pmod	n/a	21	1	n/a	n/a
312.726650	2	cue_ug-prop_pmod	n/a	23	3	n/a	n/a
322.267880	2	cue_ug-resp_pmod	n/a	21	2	n/a	n/a
334.311040	2	cue_ug-prop_pmod	n/a	21	1	n/a	n/a
345.353400	2	cue_ug-prop_pmod	n/a	23	3	n/a	n/a
353.393400	2	cue_ug-prop_pmod	n/a	21	1	n/a	n/a
365.436860	2	cue_ug-prop_pmod	n/a	15	-6	n/a	n/a
376.979680	2	cue_dict_pmod	n/a	17	-3	n/a	n/a
7.523372	1.285837	dec_ug-prop_pmod_choice	1.285837	15	n/a	8	8.165253e-02
20.565332	1.354340	dec_ug-prop_pmod_choice	1.354340	19	n/a	10	8.867008e-02
33.608593	1.355262	dec_ug-prop_pmod_choice	1.355262	25	n/a	17	-6.501413e-02
43.151590	1.270059	dec_dg-prop_pmod_choice	1.270059	17	n/a	9	9.524457e-02
55.196550	1.502242	dec_ug-prop_pmod_choice	1.502242	15	n/a	12	-1.850141e-01
66.236520	1.621157	dec_dg-prop_pmod_choice	1.621157	15	n/a	8	9.132300e-02
74.278520	1.068707	dec_dg-prop_pmod_choice	1.068707	17	n/a	9	9.524457e-02
82.318000	1.586077	dec_dg-prop_pmod_choice	1.586077	19	n/a	15	-1.648174e-01
90.358460	1.268915	dec_dg-prop_pmod_choice	1.268915	23	n/a	13	5.943894e-02
99.915340	1.436446	dec_dg-prop_pmod_choice	1.436446	25	n/a	14	6.465633e-02
107.955850	1.986408	dec_ug-resp_pmod_reject	1.986408	21	n/a	0	3.926219e-02
107.955850	1.986408	dec_ug-resp_pmod_option_presented	1.986408	21	n/a	0	3.926219e-02
107.955850	1.986408	dec_ug-resp_pmod_choice	1.986408	21	n/a	0	-1.512140e-01
117.996750	1.470029	dec_dg-prop_pmod_choice	1.470029	15	n/a	10	-4.201033e-02
126.038430	2.268696	dec_ug-resp_pmod_reject	2.268696	21	n/a	0	2.773574e-01
126.038430	2.268696	dec_ug-resp_pmod_option_presented	2.268696	21	n/a	0	2.773574e-01
126.038430	2.268696	dec_ug-resp_pmod_choice	2.268696	21	n/a	0	-1.512140e-01
137.077450	4.000000	missed_trial	n/a	21	n/a	n/a	n/a
152.125960	1.102313	dec_dg-prop_pmod_choice	1.102313	15	n/a	12	-1.753437e-01
160.165560	1.169174	dec_dg-prop_pmod_choice	1.169174	15	n/a	8	9.132300e-02
173.708330	1.437620	dec_ug-prop_pmod_choice	1.437620	23	n/a	13	4.976847e-02
185.252270	1.136420	dec_dg-prop_pmod_choice	1.136420	25	n/a	17	-5.534367e-02
193.293030	1.035569	dec_ug-prop_pmod_choice	1.035569	23	n/a	16	-8.066631e-02
206.334900	1.371362	dec_ug-prop_pmod_choice	1.371362	21	n/a	12	4.355729e-02
217.878300	1.770951	dec_ug-resp_pmod_reject	1.770951	17	n/a	0	-1.512140e-01
217.878300	1.770951	dec_ug-resp_pmod_option_presented	1.770951	17	n/a	0	-9.239047e-02
217.878300	1.770951	dec_ug-resp_pmod_choice	1.770951	17	n/a	0	-1.512140e-01
227.921200	1.286041	dec_ug-prop_pmod_choice	1.286041	19	n/a	10	8.867008e-02
239.964610	1.285813	dec_ug-prop_pmod_choice	1.285813	17	n/a	12	-9.089649e-02
250.006480	1.335602	dec_dg-prop_pmod_choice	1.335602	19	n/a	10	9.834054e-02
265.052220	1.802727	dec_ug-resp_pmod_accept	1.802727	21	n/a	12	2.773574e-01
265.052220	1.802727	dec_ug-resp_pmod_option_presented	1.802727	21	n/a	12	2.773574e-01
265.052220	1.802727	dec_ug-resp_pmod_choice	1.802727	21	n/a	12	2.773574e-01
274.593050	1.219179	dec_ug-prop_pmod_choice	1.219179	23	n/a	16	-8.066631e-02
284.133120	2.737770	dec_ug-resp_pmod_accept	2.737770	21	n/a	14	1.821193e-01
284.133120	2.737770	dec_ug-resp_pmod_option_presented	2.737770	21	n/a	14	1.821193e-01
284.133120	2.737770	dec_ug-resp_pmod_choice	2.737770	21	n/a	14	1.821193e-01
292.174500	1.486662	dec_ug-prop_pmod_choice	1.486662	21	n/a	14	-5.168080e-02
300.215000	1.451706	dec_ug-resp_pmod_reject	1.451706	21	n/a	0	-1.035950e-01
300.215000	1.451706	dec_ug-resp_pmod_option_presented	1.451706	21	n/a	0	-1.035950e-01
300.215000	1.451706	dec_ug-resp_pmod_choice	1.451706	21	n/a	0	-1.512140e-01
316.760860	1.486635	dec_ug-resp_pmod_reject	1.486635	23	n/a	0	2.269904e-02
316.760860	1.486635	dec_ug-resp_pmod_option_presented	1.486635	23	n/a	0	2.269904e-02
316.760860	1.486635	dec_ug-resp_pmod_choice	1.486635	23	n/a	0	-1.512140e-01
324.801000	1.319391	dec_dg-prop_pmod_choice	1.319391	21	n/a	14	-4.201033e-02
339.845000	1.854705	dec_ug-resp_pmod_reject	1.854705	21	n/a	0	-1.512140e-01
339.845000	1.854705	dec_ug-resp_pmod_option_presented	1.854705	21	n/a	0	3.926219e-02
339.845000	1.854705	dec_ug-resp_pmod_choice	1.854705	21	n/a	0	-1.512140e-01
347.886230	1.252959	dec_ug-resp_pmod_accept	1.252959	23	n/a	13	2.835686e-01
347.886230	1.252959	dec_ug-resp_pmod_option_presented	1.252959	23	n/a	13	2.835686e-01
347.886230	1.252959	dec_ug-resp_pmod_choice	1.252959	23	n/a	13	2.835686e-01
355.926970	1.585775	dec_ug-resp_pmod_reject	1.585775	21	n/a	0	-1.512140e-01
355.926970	1.585775	dec_ug-resp_pmod_option_presented	1.585775	21	n/a	0	-1.035950e-01
355.926970	1.585775	dec_ug-resp_pmod_choice	1.585775	21	n/a	0	-1.512140e-01
369.469970	1.538196	dec_ug-resp_pmod_accept	1.538196	15	n/a	8	3.154527e-01
369.469970	1.538196	dec_ug-resp_pmod_option_presented	1.538196	15	n/a	8	3.154527e-01
369.469970	1.538196	dec_ug-resp_pmod_choice	1.538196	15	n/a	8	3.154527e-01
381.012880	1.520618	dec_ug-prop_pmod_choice	1.520618	17	n/a	9	8.557410e-02
