onset	duration	trial_type	response_time	Endowment	Endowment_pmod	Decision	Decision_pmod
4.992383	2	cue_ug-prop_pmod	n/a	19	-2	n/a	n/a
13.042814	2	cue_dict_pmod	n/a	21	1	n/a	n/a
21.092380	2	cue_ug-prop_pmod	n/a	15	-6	n/a	n/a
32.642200	2	cue_ug-resp_pmod	n/a	17	-4	n/a	n/a
44.692245	2	cue_dict_pmod	n/a	19	-1	n/a	n/a
52.741795	2	cue_dict_pmod	n/a	17	-3	n/a	n/a
62.792297	2	cue_dict_pmod	n/a	15	-5	n/a	n/a
72.842160	2	cue_dict_pmod	n/a	23	3	n/a	n/a
83.892080	2	cue_dict_pmod	n/a	15	-5	n/a	n/a
95.442055	2	cue_ug-prop_pmod	n/a	21	0	n/a	n/a
104.991940	2	cue_ug-resp_pmod	n/a	17	-4	n/a	n/a
117.042076	2	cue_ug-prop_pmod	n/a	21	0	n/a	n/a
126.591995	2	cue_ug-resp_pmod	n/a	25	4	n/a	n/a
138.641740	2	cue_ug-resp_pmod	n/a	21	0	n/a	n/a
153.691770	2	cue_ug-resp_pmod	n/a	15	-6	n/a	n/a
164.741960	2	cue_dict_pmod	n/a	25	5	n/a	n/a
172.791760	2	cue_ug-prop_pmod	n/a	25	4	n/a	n/a
180.841630	2	cue_ug-prop_pmod	n/a	23	2	n/a	n/a
190.891620	2	cue_ug-resp_pmod	n/a	21	0	n/a	n/a
198.941540	2	cue_ug-resp_pmod	n/a	25	4	n/a	n/a
210.491670	2	cue_ug-prop_pmod	n/a	25	4	n/a	n/a
221.541490	2	cue_ug-resp_pmod	n/a	25	4	n/a	n/a
236.591520	2	cue_dict_pmod	n/a	25	5	n/a	n/a
248.141530	2	cue_dict_pmod	n/a	23	3	n/a	n/a
258.191400	2	cue_ug-resp_pmod	n/a	19	-2	n/a	n/a
273.241330	2	cue_ug-prop_pmod	n/a	23	2	n/a	n/a
281.291230	2	cue_ug-resp_pmod	n/a	25	4	n/a	n/a
291.341340	2	cue_ug-prop_pmod	n/a	21	0	n/a	n/a
307.891240	2	cue_ug-prop_pmod	n/a	15	-6	n/a	n/a
317.441200	2	cue_ug-resp_pmod	n/a	17	-4	n/a	n/a
328.491060	2	cue_dict_pmod	n/a	19	-1	n/a	n/a
342.041140	2	cue_dict_pmod	n/a	15	-5	n/a	n/a
350.091200	2	cue_ug-prop_pmod	n/a	23	2	n/a	n/a
358.141170	2	cue_ug-prop_pmod	n/a	23	2	n/a	n/a
368.190950	2	cue_ug-resp_pmod	n/a	21	0	n/a	n/a
379.241030	2	cue_dict_pmod	n/a	21	1	n/a	n/a
7.525034	1.999953	dec_ug-resp_pmod_accept	1.999953	19	n/a	13	8.787948e-02
7.525034	1.999953	dec_ug-resp_pmod_option_presented	1.999953	19	n/a	13	8.787948e-02
7.525034	1.999953	dec_ug-resp_pmod_choice	1.999953	19	n/a	13	8.787948e-02
15.574868	1.199731	dec_ug-prop_pmod_choice	1.199731	21	n/a	17	-3.324881e-02
25.124790	1.650297	dec_ug-resp_pmod_accept	1.650297	15	n/a	8	2.387567e-01
25.124790	1.650297	dec_ug-resp_pmod_option_presented	1.650297	15	n/a	8	2.387567e-01
25.124790	1.650297	dec_ug-resp_pmod_choice	1.650297	15	n/a	8	2.387567e-01
35.175076	1.166532	dec_dg-prop_pmod_choice	1.166532	17	n/a	14	-1.320802e-01
47.225056	1.383325	dec_ug-prop_pmod_choice	1.383325	19	n/a	18	-1.710934e-01
55.274067	4.000000	missed_trial	n/a	17	n/a	n/a	n/a
65.324486	1.200460	dec_ug-prop_pmod_choice	1.200460	15	n/a	8	2.429417e-01
78.374410	1.233983	dec_ug-prop_pmod_choice	1.233983	23	n/a	16	8.062283e-02
87.924530	1.783533	dec_ug-prop_pmod_choice	1.783533	15	n/a	10	1.096083e-01
99.475110	1.816053	dec_ug-resp_pmod_accept	1.816053	21	n/a	14	1.054233e-01
99.475110	1.816053	dec_ug-resp_pmod_option_presented	1.816053	21	n/a	14	1.054233e-01
99.475110	1.816053	dec_ug-resp_pmod_choice	1.816053	21	n/a	14	1.054233e-01
107.524520	1.250198	dec_dg-prop_pmod_choice	1.250198	17	n/a	16	-2.497273e-01
121.075280	1.399310	dec_ug-resp_pmod_reject	1.399310	21	n/a	0	-2.279100e-01
121.075280	1.399310	dec_ug-resp_pmod_option_presented	1.399310	21	n/a	0	-1.802909e-01
121.075280	1.399310	dec_ug-resp_pmod_choice	1.399310	21	n/a	0	-2.279100e-01
129.125200	1.116172	dec_dg-prop_pmod_choice	1.116172	25	n/a	20	-1.085508e-01
144.175060	1.266139	dec_dg-prop_pmod_choice	1.266139	21	n/a	17	-1.180746e-01
159.225100	1.749430	dec_dg-prop_pmod_choice	1.749430	15	n/a	10	2.478251e-02
167.275100	1.332987	dec_ug-prop_pmod_choice	1.332987	25	n/a	17	9.627500e-02
175.323620	1.450920	dec_ug-resp_pmod_accept	1.450920	25	n/a	14	2.120900e-01
175.323620	1.450920	dec_ug-resp_pmod_option_presented	1.450920	25	n/a	14	2.120900e-01
175.323620	1.450920	dec_ug-resp_pmod_choice	1.450920	25	n/a	14	2.120900e-01
183.374340	1.133526	dec_ug-resp_pmod_reject	1.133526	23	n/a	0	-1.844317e-01
183.374340	1.133526	dec_ug-resp_pmod_option_presented	1.133526	23	n/a	0	-1.844317e-01
183.374340	1.133526	dec_ug-resp_pmod_choice	1.133526	23	n/a	0	-2.279100e-01
193.424130	1.366891	dec_dg-prop_pmod_choice	1.366891	21	n/a	17	-1.180746e-01
202.974610	1.816372	dec_dg-prop_pmod_choice	1.816372	25	n/a	20	-1.085508e-01
216.024110	1.266805	dec_ug-resp_pmod_accept	1.266805	25	n/a	14	2.120900e-01
216.024110	1.266805	dec_ug-resp_pmod_option_presented	1.266805	25	n/a	14	2.120900e-01
216.024110	1.266805	dec_ug-resp_pmod_choice	1.266805	25	n/a	14	2.120900e-01
224.074860	1.749193	dec_dg-prop_pmod_choice	1.749193	25	n/a	14	1.314492e-01
240.624800	1.032738	dec_ug-prop_pmod_choice	1.032738	25	n/a	17	9.627500e-02
250.673920	1.800098	dec_ug-prop_pmod_choice	1.800098	23	n/a	16	8.062283e-02
260.723300	1.034213	dec_dg-prop_pmod_choice	1.034213	19	n/a	15	-9.802451e-02
275.773700	1.350198	dec_ug-resp_pmod_accept	1.350198	23	n/a	13	2.068726e-01
275.773700	1.350198	dec_ug-resp_pmod_option_presented	1.350198	23	n/a	13	2.068726e-01
275.773700	1.350198	dec_ug-resp_pmod_choice	1.350198	23	n/a	13	2.068726e-01
283.824860	1.832483	dec_dg-prop_pmod_choice	1.832483	25	n/a	20	-1.085508e-01
295.373930	1.449919	dec_ug-resp_pmod_reject	1.449919	21	n/a	0	-2.279100e-01
295.373930	1.449919	dec_ug-resp_pmod_option_presented	1.449919	21	n/a	0	-3.743380e-02
295.373930	1.449919	dec_ug-resp_pmod_choice	1.449919	21	n/a	0	-2.279100e-01
311.923700	1.649927	dec_ug-resp_pmod_reject	1.649927	15	n/a	0	-2.279100e-01
311.923700	1.649927	dec_ug-resp_pmod_option_presented	1.649927	15	n/a	0	-2.790999e-02
311.923700	1.649927	dec_ug-resp_pmod_choice	1.649927	15	n/a	0	-2.279100e-01
322.973500	1.850399	dec_dg-prop_pmod_choice	1.850399	17	n/a	12	-1.443318e-02
332.523650	2.733519	dec_ug-prop_pmod_choice	2.733519	19	n/a	10	2.499592e-01
344.573580	1.383537	dec_ug-prop_pmod_choice	1.383537	15	n/a	12	-2.372500e-02
352.624400	1.449272	dec_ug-resp_pmod_accept	1.449272	23	n/a	16	7.643783e-02
352.624400	1.449272	dec_ug-resp_pmod_option_presented	1.449272	23	n/a	16	7.643783e-02
352.624400	1.449272	dec_ug-resp_pmod_choice	1.449272	23	n/a	16	7.643783e-02
360.673680	1.333362	dec_ug-resp_pmod_reject	1.333362	23	n/a	0	-2.279100e-01
360.673680	1.333362	dec_ug-resp_pmod_option_presented	1.333362	23	n/a	0	-5.399695e-02
360.673680	1.333362	dec_ug-resp_pmod_choice	1.333362	23	n/a	0	-2.279100e-01
373.723660	1.316700	dec_dg-prop_pmod_choice	1.316700	21	n/a	17	-1.180746e-01
383.274260	1.982966	dec_ug-prop_pmod_choice	1.982966	21	n/a	12	2.048464e-01
