onset	duration	trial_type	response_time	Endowment	Endowment_pmod	Decision	Decision_pmod
4.989466	2	cue_ug-resp_pmod	n/a	15	-6	n/a	n/a
15.039084	2	cue_dict_pmod	n/a	15	-5	n/a	n/a
23.089113	2	cue_ug-prop_pmod	n/a	19	0	n/a	n/a
31.139187	2	cue_ug-resp_pmod	n/a	25	4	n/a	n/a
43.188980	2	cue_ug-prop_pmod	n/a	15	-4	n/a	n/a
54.738903	2	cue_dict_pmod	n/a	21	2	n/a	n/a
69.788864	2	cue_ug-resp_pmod	n/a	23	2	n/a	n/a
77.839035	2	cue_ug-prop_pmod	n/a	19	0	n/a	n/a
85.888790	2	cue_ug-prop_pmod	n/a	19	0	n/a	n/a
93.938760	2	cue_ug-resp_pmod	n/a	19	-2	n/a	n/a
103.989070	2	cue_ug-resp_pmod	n/a	21	0	n/a	n/a
115.538660	2	cue_ug-prop_pmod	n/a	15	-4	n/a	n/a
127.088715	2	cue_dict_pmod	n/a	15	-5	n/a	n/a
135.138580	2	cue_ug-prop_pmod	n/a	23	4	n/a	n/a
146.688540	2	cue_ug-resp_pmod	n/a	21	0	n/a	n/a
157.738530	2	cue_dict_pmod	n/a	19	-1	n/a	n/a
175.788450	2	cue_ug-resp_pmod	n/a	15	-6	n/a	n/a
183.838420	2	cue_dict_pmod	n/a	19	-1	n/a	n/a
194.888440	2	cue_ug-resp_pmod	n/a	23	2	n/a	n/a
204.938480	2	cue_dict_pmod	n/a	23	4	n/a	n/a
212.988540	2	cue_ug-prop_pmod	n/a	23	4	n/a	n/a
221.038300	2	cue_ug-prop_pmod	n/a	21	2	n/a	n/a
232.088260	2	cue_ug-prop_pmod	n/a	21	2	n/a	n/a
240.138260	2	cue_dict_pmod	n/a	17	-3	n/a	n/a
250.188230	2	cue_ug-prop_pmod	n/a	15	-4	n/a	n/a
265.238400	2	cue_ug-prop_pmod	n/a	17	-2	n/a	n/a
276.788020	2	cue_ug-resp_pmod	n/a	25	4	n/a	n/a
286.338000	2	cue_ug-prop_pmod	n/a	17	-2	n/a	n/a
295.888000	2	cue_ug-resp_pmod	n/a	19	-2	n/a	n/a
307.437930	2	cue_dict_pmod	n/a	21	2	n/a	n/a
315.487980	2	cue_ug-resp_pmod	n/a	21	0	n/a	n/a
327.537960	2	cue_dict_pmod	n/a	17	-3	n/a	n/a
338.587860	2	cue_ug-resp_pmod	n/a	21	0	n/a	n/a
350.637900	2	cue_dict_pmod	n/a	25	6	n/a	n/a
362.687800	2	cue_dict_pmod	n/a	23	4	n/a	n/a
379.237800	2	cue_dict_pmod	n/a	19	-1	n/a	n/a
7.521610	0.816853	dec_dg-prop_pmod_choice	0.816853	15	n/a	8	1.127070e-01
17.571497	1.217119	dec_ug-prop_pmod_choice	1.217119	15	n/a	12	-1.907003e-01
25.621620	1.983531	dec_ug-resp_pmod_accept	1.983531	19	n/a	13	1.511623e-01
25.621620	1.983531	dec_ug-resp_pmod_option_presented	1.983531	19	n/a	13	1.511623e-01
25.621620	1.983531	dec_ug-resp_pmod_choice	1.983531	19	n/a	13	1.511623e-01
33.671440	1.233655	dec_dg-prop_pmod_choice	1.233655	25	n/a	17	-3.395969e-02
47.221478	2.000178	dec_ug-resp_pmod_accept	2.000178	15	n/a	12	3.537285e-02
47.221478	2.000178	dec_ug-resp_pmod_option_presented	2.000178	15	n/a	12	3.537285e-02
47.221478	2.000178	dec_ug-resp_pmod_choice	2.000178	15	n/a	12	3.537285e-02
60.271470	1.200070	dec_ug-prop_pmod_choice	1.200070	21	n/a	12	3.787113e-02
72.321335	1.433683	dec_dg-prop_pmod_choice	1.433683	23	n/a	13	8.082292e-02
80.372574	1.598989	dec_ug-resp_pmod_accept	1.598989	19	n/a	13	1.511623e-01
80.372574	1.598989	dec_ug-resp_pmod_option_presented	1.598989	19	n/a	13	1.511623e-01
80.372574	1.598989	dec_ug-resp_pmod_choice	1.598989	19	n/a	13	1.511623e-01
88.421560	1.733297	dec_ug-resp_pmod_accept	1.733297	19	n/a	13	1.511623e-01
88.421560	1.733297	dec_ug-resp_pmod_option_presented	1.733297	19	n/a	13	1.511623e-01
88.421560	1.733297	dec_ug-resp_pmod_choice	1.733297	19	n/a	13	1.511623e-01
96.471214	1.266959	dec_dg-prop_pmod_choice	1.266959	19	n/a	10	1.197245e-01
108.021120	1.000388	dec_dg-prop_pmod_choice	1.000388	21	n/a	12	7.461174e-02
119.571130	1.816647	dec_ug-resp_pmod_accept	1.816647	15	n/a	10	1.687062e-01
119.571130	1.816647	dec_ug-resp_pmod_option_presented	1.816647	15	n/a	10	1.687062e-01
119.571130	1.816647	dec_ug-resp_pmod_choice	1.816647	15	n/a	10	1.687062e-01
129.621020	1.316929	dec_ug-prop_pmod_choice	1.316929	15	n/a	10	-5.736697e-02
139.171130	1.516807	dec_ug-resp_pmod_accept	1.516807	23	n/a	16	1.397207e-01
139.171130	1.516807	dec_ug-resp_pmod_option_presented	1.516807	23	n/a	16	1.397207e-01
139.171130	1.516807	dec_ug-resp_pmod_choice	1.516807	23	n/a	16	1.397207e-01
152.221200	0.933412	dec_dg-prop_pmod_choice	0.933412	21	n/a	14	-2.062635e-02
163.271090	1.366508	dec_ug-prop_pmod_choice	1.366508	19	n/a	13	-7.491083e-02
178.320900	0.983664	dec_dg-prop_pmod_choice	0.983664	15	n/a	8	1.127070e-01
189.370970	1.266981	dec_ug-prop_pmod_choice	1.266981	19	n/a	10	8.298391e-02
197.420930	1.366942	dec_dg-prop_pmod_choice	1.366942	23	n/a	16	-4.961186e-02
207.470840	1.050211	dec_ug-prop_pmod_choice	1.050211	23	n/a	13	4.408231e-02
215.521030	1.616611	dec_ug-resp_pmod_reject	1.616611	23	n/a	0	-1.211489e-01
215.521030	1.616611	dec_ug-resp_pmod_option_presented	1.616611	23	n/a	0	-1.211489e-01
215.521030	1.616611	dec_ug-resp_pmod_choice	1.616611	23	n/a	0	-1.646271e-01
226.570790	2.050237	dec_ug-resp_pmod_reject	2.050237	21	n/a	0	-1.646271e-01
226.570790	2.050237	dec_ug-resp_pmod_option_presented	2.050237	21	n/a	0	-1.170081e-01
226.570790	2.050237	dec_ug-resp_pmod_choice	2.050237	21	n/a	0	-1.646271e-01
234.620700	1.817089	dec_ug-resp_pmod_accept	1.817089	21	n/a	17	2.584904e-02
234.620700	1.817089	dec_ug-resp_pmod_option_presented	1.817089	21	n/a	17	2.584904e-02
234.620700	1.817089	dec_ug-resp_pmod_choice	1.817089	21	n/a	17	2.584904e-02
242.670680	1.633649	dec_ug-prop_pmod_choice	1.633649	17	n/a	9	7.988793e-02
252.720730	1.783618	dec_ug-resp_pmod_reject	1.783618	15	n/a	0	-9.796048e-02
252.720730	1.783618	dec_ug-resp_pmod_option_presented	1.783618	15	n/a	0	-9.796048e-02
252.720730	1.783618	dec_ug-resp_pmod_choice	1.783618	15	n/a	0	-1.646271e-01
269.270660	1.217097	dec_ug-resp_pmod_reject	1.217097	17	n/a	0	-1.058036e-01
269.270660	1.217097	dec_ug-resp_pmod_option_presented	1.217097	17	n/a	0	-1.058036e-01
269.270660	1.217097	dec_ug-resp_pmod_choice	1.217097	17	n/a	0	-1.646271e-01
280.820620	1.133559	dec_dg-prop_pmod_choice	1.133559	25	n/a	17	-3.395969e-02
290.370540	2.633618	dec_ug-resp_pmod_reject	2.633618	17	n/a	0	-1.646271e-01
290.370540	2.633618	dec_ug-resp_pmod_option_presented	2.633618	17	n/a	0	1.184344e-02
290.370540	2.633618	dec_ug-resp_pmod_choice	2.633618	17	n/a	0	-1.646271e-01
299.920620	1.416734	dec_dg-prop_pmod_choice	1.416734	19	n/a	10	1.197245e-01
309.970500	1.033637	dec_ug-prop_pmod_choice	1.033637	21	n/a	17	-2.002241e-01
318.020480	1.433567	dec_dg-prop_pmod_choice	1.433567	21	n/a	14	-2.062635e-02
333.070340	0.966885	dec_ug-prop_pmod_choice	0.966885	17	n/a	9	7.988793e-02
341.120400	1.016997	dec_dg-prop_pmod_choice	1.016997	21	n/a	14	-2.062635e-02
353.170300	1.299979	dec_ug-prop_pmod_choice	1.299979	25	n/a	14	4.929970e-02
366.720340	1.033537	dec_ug-prop_pmod_choice	1.033537	23	n/a	19	-2.167873e-01
383.270260	0.916702	dec_ug-prop_pmod_choice	0.916702	19	n/a	13	-7.491083e-02
