onset	duration	trial_type	response_time	Endowment	Endowment_pmod	Decision	Decision_pmod
4.994277	2	cue_ug-resp_pmod	n/a	21	1	n/a	n/a
16.544289	2	cue_dict_pmod	n/a	15	-6	n/a	n/a
28.093655	2	cue_ug-prop_pmod	n/a	21	2	n/a	n/a
43.144386	2	cue_ug-prop_pmod	n/a	17	-2	n/a	n/a
51.194218	2	cue_dict_pmod	n/a	23	2	n/a	n/a
59.244114	2	cue_ug-prop_pmod	n/a	21	2	n/a	n/a
67.294110	2	cue_dict_pmod	n/a	21	0	n/a	n/a
79.344030	2	cue_ug-prop_pmod	n/a	25	6	n/a	n/a
89.394020	2	cue_dict_pmod	n/a	23	2	n/a	n/a
98.944130	2	cue_ug-resp_pmod	n/a	15	-5	n/a	n/a
108.494090	2	cue_dict_pmod	n/a	21	0	n/a	n/a
116.543630	2	cue_ug-prop_pmod	n/a	19	0	n/a	n/a
128.093900	2	cue_dict_pmod	n/a	15	-6	n/a	n/a
139.143770	2	cue_ug-resp_pmod	n/a	21	1	n/a	n/a
154.193330	2	cue_ug-resp_pmod	n/a	19	-1	n/a	n/a
162.243730	2	cue_dict_pmod	n/a	25	4	n/a	n/a
177.293670	2	cue_ug-resp_pmod	n/a	15	-5	n/a	n/a
186.843600	2	cue_ug-prop_pmod	n/a	21	2	n/a	n/a
196.893260	2	cue_ug-resp_pmod	n/a	21	1	n/a	n/a
207.943150	2	cue_ug-resp_pmod	n/a	25	5	n/a	n/a
217.493380	2	cue_ug-resp_pmod	n/a	23	3	n/a	n/a
225.543120	2	cue_ug-prop_pmod	n/a	17	-2	n/a	n/a
233.593190	2	cue_ug-prop_pmod	n/a	19	0	n/a	n/a
246.643110	2	cue_ug-prop_pmod	n/a	15	-4	n/a	n/a
257.693050	2	cue_ug-resp_pmod	n/a	23	3	n/a	n/a
269.242980	2	cue_ug-resp_pmod	n/a	21	1	n/a	n/a
284.292970	2	cue_dict_pmod	n/a	25	4	n/a	n/a
292.342960	2	cue_ug-resp_pmod	n/a	23	3	n/a	n/a
304.393100	2	cue_ug-prop_pmod	n/a	25	6	n/a	n/a
312.443020	2	cue_dict_pmod	n/a	25	4	n/a	n/a
323.492860	2	cue_ug-prop_pmod	n/a	15	-4	n/a	n/a
333.542880	2	cue_ug-prop_pmod	n/a	17	-2	n/a	n/a
343.592860	2	cue_ug-resp_pmod	n/a	17	-3	n/a	n/a
353.642880	2	cue_dict_pmod	n/a	21	0	n/a	n/a
367.192840	2	cue_dict_pmod	n/a	23	2	n/a	n/a
376.742800	2	cue_dict_pmod	n/a	19	-2	n/a	n/a
9.027078	1.950149	dec_dg-prop_pmod_choice	1.950149	21	n/a	17	-1.564469e-01
20.576931	1.100024	dec_ug-prop_pmod_choice	1.100024	15	n/a	12	-5.455210e-02
30.627007	1.583195	dec_ug-resp_pmod_accept	1.583195	21	n/a	12	2.091317e-01
30.627007	1.583195	dec_ug-resp_pmod_option_presented	1.583195	21	n/a	12	2.091317e-01
30.627007	1.583195	dec_ug-resp_pmod_choice	1.583195	21	n/a	12	2.091317e-01
45.676930	1.033233	dec_ug-resp_pmod_accept	1.033233	17	n/a	9	2.511485e-01
45.676930	1.033233	dec_ug-resp_pmod_option_presented	1.033233	17	n/a	9	2.511485e-01
45.676930	1.033233	dec_ug-resp_pmod_choice	1.033233	17	n/a	9	2.511485e-01
53.726852	1.850239	dec_ug-prop_pmod_choice	1.850239	23	n/a	13	1.802305e-01
61.776596	1.983443	dec_ug-resp_pmod_accept	1.983443	21	n/a	14	1.138936e-01
61.776596	1.983443	dec_ug-resp_pmod_option_presented	1.983443	21	n/a	14	1.138936e-01
61.776596	1.983443	dec_ug-resp_pmod_choice	1.983443	21	n/a	14	1.138936e-01
69.826840	0.850367	dec_ug-prop_pmod_choice	0.850367	21	n/a	14	7.878124e-02
81.875800	1.217118	dec_ug-resp_pmod_reject	1.217118	25	n/a	0	-2.194398e-01
81.875800	1.217118	dec_ug-resp_pmod_option_presented	1.217118	25	n/a	0	-1.394398e-01
81.875800	1.217118	dec_ug-resp_pmod_choice	1.217118	25	n/a	0	-2.194398e-01
93.426770	2.616037	dec_ug-prop_pmod_choice	2.616037	23	n/a	13	1.802305e-01
102.976790	2.633176	dec_dg-prop_pmod_choice	2.633176	15	n/a	8	1.197436e-01
111.027400	1.349422	dec_ug-prop_pmod_choice	1.349422	21	n/a	12	1.740193e-01
120.577255	2.232640	dec_ug-resp_pmod_reject	2.232640	19	n/a	0	-8.913460e-03
120.577255	2.232640	dec_ug-resp_pmod_option_presented	2.232640	19	n/a	0	-8.913460e-03
120.577255	2.232640	dec_ug-resp_pmod_choice	2.232640	19	n/a	0	-2.194398e-01
133.626720	1.183284	dec_ug-prop_pmod_choice	1.183284	15	n/a	10	7.878124e-02
141.676710	2.733278	dec_dg-prop_pmod_choice	2.733278	21	n/a	12	8.164832e-02
156.725890	4.000000	missed_trial	n/a	19	n/a	n/a	n/a
164.775910	1.116394	dec_ug-prop_pmod_choice	1.116394	25	n/a	14	1.854479e-01
181.326570	1.533218	dec_dg-prop_pmod_choice	1.533218	15	n/a	14	-2.802564e-01
189.376540	1.383402	dec_ug-resp_pmod_accept	1.383402	21	n/a	14	1.138936e-01
189.376540	1.383402	dec_ug-resp_pmod_option_presented	1.383402	21	n/a	14	1.138936e-01
189.376540	1.383402	dec_ug-resp_pmod_choice	1.383402	21	n/a	14	1.138936e-01
202.426560	2.349818	dec_dg-prop_pmod_choice	2.349818	21	n/a	12	8.164832e-02
211.975810	1.400256	dec_dg-prop_pmod_choice	1.400256	25	n/a	20	-1.469231e-01
220.025730	1.215866	dec_dg-prop_pmod_choice	1.215866	23	n/a	19	-1.730101e-01
228.075450	1.166637	dec_ug-resp_pmod_reject	1.166637	17	n/a	0	-2.194398e-01
228.075450	1.166637	dec_ug-resp_pmod_option_presented	1.166637	17	n/a	0	-1.606162e-01
228.075450	1.166637	dec_ug-resp_pmod_choice	1.166637	17	n/a	0	-2.194398e-01
239.125580	1.884059	dec_ug-resp_pmod_reject	1.884059	19	n/a	0	-8.913460e-03
239.125580	1.884059	dec_ug-resp_pmod_option_presented	1.884059	19	n/a	0	-8.913460e-03
239.125580	1.884059	dec_ug-resp_pmod_choice	1.884059	19	n/a	0	-2.194398e-01
252.176440	1.715653	dec_ug-resp_pmod_accept	1.715653	15	n/a	10	1.138936e-01
252.176440	1.715653	dec_ug-resp_pmod_option_presented	1.715653	15	n/a	10	1.138936e-01
252.176440	1.715653	dec_ug-resp_pmod_choice	1.715653	15	n/a	10	1.138936e-01
261.725400	1.784150	dec_dg-prop_pmod_choice	1.784150	23	n/a	16	-4.257528e-02
274.776100	1.249915	dec_dg-prop_pmod_choice	1.249915	21	n/a	17	-1.564469e-01
286.825440	1.866427	dec_ug-prop_pmod_choice	1.866427	25	n/a	17	6.544790e-02
294.875340	2.066479	dec_dg-prop_pmod_choice	2.066479	23	n/a	19	-1.730101e-01
306.926240	1.749739	dec_ug-resp_pmod_accept	1.749739	25	n/a	14	2.205602e-01
306.926240	1.749739	dec_ug-resp_pmod_option_presented	1.749739	25	n/a	14	2.205602e-01
306.926240	1.749739	dec_ug-resp_pmod_choice	1.749739	25	n/a	14	2.205602e-01
317.975280	2.184039	dec_ug-prop_pmod_choice	2.184039	25	n/a	17	6.544790e-02
326.026200	1.850080	dec_ug-resp_pmod_reject	1.850080	15	n/a	0	-2.194398e-01
326.026200	1.850080	dec_ug-resp_pmod_option_presented	1.850080	15	n/a	0	-1.527731e-01
326.026200	1.850080	dec_ug-resp_pmod_choice	1.850080	15	n/a	0	-2.194398e-01
336.076200	2.815544	dec_ug-resp_pmod_accept	2.815544	17	n/a	12	7.467787e-02
336.076200	2.815544	dec_ug-resp_pmod_option_presented	2.815544	17	n/a	12	7.467787e-02
336.076200	2.815544	dec_ug-resp_pmod_choice	2.815544	17	n/a	12	7.467787e-02
346.125240	2.500381	dec_dg-prop_pmod_choice	2.500381	17	n/a	14	-1.704525e-01
357.675570	1.749919	dec_ug-prop_pmod_choice	1.749919	21	n/a	12	1.740193e-01
371.225520	1.216126	dec_ug-prop_pmod_choice	1.216126	23	n/a	19	-8.063905e-02
379.275020	1.550669	dec_ug-prop_pmod_choice	1.550669	19	n/a	13	6.123738e-02
